<?xml version="1.0" encoding="utf-8"?>
<Condition xmlns="http://hl7.org/fhir">
    <id value="6c959805-7af1-445d-9d3e-087e3c2bc107"/>
    <meta>
        <versionId value="10a59590-9533-4d13-9909-7f7d073d0045"/>
        <lastUpdated value="2016-03-01T10:04:33+00:00"/>
        <profile value="https://fhir.nhs.uk/STU3/StructureDefinition/CareConnect-RARecord-Condition-1" />
    </meta>
    <contained>
            <Provenance>
                <id value="d0d311a1-e13b-4c89-a496-1694332471d3"/>
                <meta>
                    <profile value="https://fhir.nhs.uk/STU3/StructureDefinition/RARecord-Provenance-1"/>
                </meta>
                <target>
                    <reference value="Condition/6c959805-7af1-445d-9d3e-087e3c2bc107"/>
                </target>
                <recorded value="2016-03-01T10:05:33+00:00"/>
                <agent>
                    <role>
                        <coding>
                            <system value="https://fhir.nhs.uk/STU3/CodeSystem/CareConnect-SDSJobRoleName-1"/>
                            <code value="R0260"/>
                            <display value="General Medical Practitioner"/>
                        </coding>
                    </role>
                    <whoReference>
                        <reference value="https://sds.spineservices.nhs.uk/STU3/Practitioner/2ee4tr6a9"/>
                        <display value="Dr.D"/>
                    </whoReference>
                    <onBehalfOfReference>
                        <reference value="https://directory.spineservices.nhs.uk/STU3/Organization/a3e5i7"/>
                        <display value="Some GP Clinic"/>
                    </onBehalfOfReference>
                </agent>
            </Provenance>
    </contained>
    <extension url="https://fhir.nhs.uk/STU3/StructureDefinition/Extension-RARecord-Provenance-1">
        <extension url="created">
            <valueReference>
                <reference value="#d0d311a1-e13b-4c89-a496-1694332471d3"/>
            </valueReference>
        </extension>
    </extension>
    <clinicalStatus value="active"/>
    <category>
        <coding>
            <system value="https://fhir.hl7.org.uk/STU3/CodeSystem/CareConnect-ConditionCategory-1"/>
            <code value="issue"/>
            <display value="Issue"/>
        </coding>
    </category>
    <code>
        <coding>
            <system value="https://fhir.nhs.uk/STU3/CodeSystem/CodeSystem-RARecord-CommunicationAdjustments-1"/>
            <code value="carertobepresentforallcommunication"/>
            <display value="Carer to be present for all communication"/>
        </coding>
    </code>
    <subject>
        <identifier>
            <reference value="demographics.spineservices.nhs.uk/STU3/Patient/999999998"/>
        </identifier>
    </subject>
</Condition>