{
  "resourceType": "Condition",
  "id": "9cbd3dda-c51a-4e68-af70-f0de60cb8ba7",
  "meta": {
    "profile": [
      "https://fhir.nhs.uk/STU3/StructureDefinition/CareConnect-RARecord-Condition-1"
    ]
  },
  "contained": [
    {
      "resourceType": "Provenance",
      "id": "8add130e-0c04-4dd1-94a0-b3317fb26dfc",
      "meta": {
        "profile": [
          "https://fhir.nhs.uk/STU3/StructureDefinition/RARecord-Provenance-1"
        ]
      },
      "target": [
        {
          "reference": "9cbd3dda-c51a-4e68-af70-f0de60cb8ba7"
        }
      ],
      "recorded": "2016-03-01T10:05:33+00:00",
      "agent": [
        {
          "role": [
            {
              "coding": [
                {
                  "system": "https://fhir.nhs.uk/STU3/CodeSystem/CareConnect-SDSJobRoleName-1",
                  "code": "R0260",
                  "display": "General Medical Practitioner"
                }
              ]
            }
          ],
          "whoReference": {
            "reference": "https://sds.spineservices.nhs.uk/STU3/Practitioner/2ee4tr6a9",
            "display": "Dr.D"
          },
          "onBehalfOfReference": {
            "reference": "https://directory.spineservices.nhs.uk/STU3/Organization/a3e5i7",
            "display": "Some GP Clinic"
          }
        }
      ]
    }
  ],
  "extension": [
    {
      "url": "https://fhir.nhs.uk/STU3/StructureDefinition/Extension-RARecord-Provenance-1",
      "extension": [
        {
          "url": "created",
          "valueReference": {
            "reference": "#8add130e-0c04-4dd1-94a0-b3317fb26dfc"
          }
        }
      ]
    }
  ],
  "clinicalStatus": "active",
  "category": [
    {
      "coding": [
        {
          "system": "https://fhir.hl7.org.uk/STU3/CodeSystem/CareConnect-ConditionCategory-1",
          "code": "issue",
          "display": "Issue"
        }
      ]
    }
  ],
  "code": {
    "coding": [
      {
        "system": "https://fhir.nhs.uk/STU3/CodeSystem/CodeSystem-RARecord-AccessibleInformationAdjustments-1",
        "code": "requiresinformationineasyread",
        "display": "Requires information in Easyread"
      }
    ]
  },
  "subject": {
    "identifier": {
      "system": "https://fhir.nhs.uk/Id/nhs-number",
      "value": "999999998"
    }
  }
}