<?xml version="1.0" encoding="UTF-8"?>
<!--This example message is provided for illustrative purposes only. It has had no clinical validation. Where there are conflicts with the written message specification or schema, the specification or schema shall be considered to take precedence-->
<Bundle xmlns="http://hl7.org/fhir">
	<id value="406807af-ccd7-46ff-a257-05fae64b216e"/>
	<meta>
		<profile value="https://fhir.nhs.uk/STU3/StructureDefinition/DCH-Bundle-1"/>
	</meta>
	<type value="message"/>
			<entry>
		<fullUrl value="urn:uuid:85c8a1c5-a8a1-41c9-bb99-20956fa66218"/>
		<resource>
			<MessageHeader>
				<id value="85c8a1c5-a8a1-41c9-bb99-20956fa66218"/>
				<meta>
					<profile value="https://fhir.nhs.uk/STU3/StructureDefinition/DCH-MessageHeader-1"/>
				</meta>
				<extension url="https://fhir.nhs.uk/STU3/StructureDefinition/Extension-DCH-MessageEventType-1">
					<valueCodeableConcept>
						<coding>
							<system value="https://fhir.nhs.uk/STU3/CodeSystem/DCH-MessageEventType-1"/>
							<code value="new"/>
							<display value="New event message"/>
						</coding>
					</valueCodeableConcept>
				</extension>
				<event>
					<system value="https://fhir.nhs.uk/STU3/CodeSystem/DCH-ChildHealthEventType-1"/>
					<code value="CH033"/>
					<display value="Legal Information"/>
				</event>
				<timestamp value="2017-11-01T15:00:00+00:00"/>
				<source>
					<endpoint value="urn:nhs-uk:addressing:ods:RX3QJ"/>
				</source>
				<responsible>
					<reference value="urn:uuid:48833cb6-a2d5-4364-9b08-7d2ef6dacffb"/>
					<display value="DURHAM SOCIAL SERVICES"/>
				</responsible>
				<focus>
					<reference value="urn:uuid:12779557-9033-4213-876f-69a670cdf35d"/>
				</focus>
			</MessageHeader>
		</resource>
	</entry>
	
	<!--Responsible org-->
	<entry>
		<fullUrl value="urn:uuid:48833cb6-a2d5-4364-9b08-7d2ef6dacffb"/>
		<resource>
			<Organization>
				<id value="48833cb6-a2d5-4364-9b08-7d2ef6dacffb"/>
				<meta>
					<profile value="https://fhir.nhs.uk/STU3/StructureDefinition/CareConnect-DCH-Organization-1"/>
				</meta>
				<identifier>
					<system value="https://fhir.nhs.uk/Id/ods-organization-code"/>
					<value value="RX3QJ"/>
				</identifier>
				<name value="DURHAM SOCIAL SERVICES"/>
				<address>
					<line value="PRIORY HOUSE"/>
					<line value="ABBEY ROAD"/>
					<city value="PITY ME"/>
					<district value="COUNTY DURHAM"/>
					<postalCode value="DH1 5RR"/>
				</address>
			</Organization>
		</resource>
	</entry>
	
	<!--Healthcare service used e.g GP, trust, etc..-->
	<entry>
		<fullUrl value="urn:uuid:5a293df7-b22f-41b6-8bf1-44248ea59edb"/>
		<resource>
			<HealthcareService>
				<id value="5a293df7-b22f-41b6-8bf1-44248ea59edb"/>
				<meta>
					<profile value="https://fhir.nhs.uk/STU3/StructureDefinition/DCH-HealthcareService-1"/>
				</meta>
				<identifier>
					<system value="urn:ietf:rfc:3986"/>
					<value value="2db9a96b-393f-4817-868f-3e064296f1f9"/>
				</identifier>
				<providedBy>
					<reference value="urn:uuid:48833cb6-a2d5-4364-9b08-7d2ef6dacffb"/>
					<display value="DURHAM SOCIAL SERVICES"/>
				</providedBy>
				<type>
					<coding>
						<system value="https://fhir.nhs.uk/STU3/CodeSystem/DCH-ProfessionalType-1"/>
						<code value="C07"/>
						<display value="Social Worker"/>
					</coding>
				</type>
				<location>
					<reference value="urn:uuid:813470e9-89e6-418b-a83e-a73f74ade903"/>
				</location>
				<telecom>
				<system value="phone"/>
					<value value="0191 1231234"/>
				</telecom>
			</HealthcareService>
		</resource>
	</entry>
		<!--Child Details (Jack Dawkins)-->
	<entry>
		<fullUrl value="urn:uuid:5d5845f3-398f-474b-af59-14882fc7b0ca"/>
		<resource>
			<Patient>
				<id value="5d5845f3-398f-474b-af59-14882fc7b0ca"/>
				<meta>
					<profile value="https://fhir.nhs.uk/STU3/StructureDefinition/CareConnect-DCH-Patient-1"/>
				</meta>
				<identifier>
						<extension url="https://fhir.nhs.uk/STU3/StructureDefinition/Extension-CareConnect-GPC-NHSNumberVerificationStatus-1">
							<valueCodeableConcept>
								<coding>
									<system value="https://fhir.nhs.uk/STU3/CareConnect-DCH-NHSNumberVerificationStatus-1"/>
									<code value="01"/>
									<display value="Number present and verified"/>
								</coding>
							</valueCodeableConcept>
						</extension>
						<system value="https://fhir.nhs.uk/Id/nhs-number"/>
						<value value="9912003888"/>
				</identifier>				
				<name>
					<use value="official"/>
					<family value="DAWKINS"/>
					<given value="Jack"/>
					<period>
						<start value="2017-10-12"/>
					</period>
				</name>
				<gender value="male"/>
				<birthDate value="2017-10-12">
					<extension url="http://hl7.org/fhir/StructureDefinition/patient-birthTime">
						<valueDateTime value="2017-10-02T12:00:00+00:00"/>
					</extension>
				</birthDate>
				<address>
					<use value="home"/>
					<line value="4 Sandmoor Drive"/>
					<city value="DURHAM"/>
					<postalCode value="DH1 2TF"/>
				</address>
			</Patient>
		</resource>
	</entry>

<!--Legal Information Child Looked After Start Observation-->
	<entry>
		<fullUrl value="urn:uuid:6a6ae2ae-2564-4f84-a9d3-c0c755a56f6b"/>
		<resource>
		<Observation>
		<id value="6a6ae2ae-2564-4f84-a9d3-c0c755a56f6b"/>
		<meta>
			<profile value="https://fhir.nhs.uk/STU3/StructureDefinition/CareConnect-DCH-LookedAfterChildStartDate-Observation-1"/>
		</meta>
		<identifier>
			<system value="urn:ietf:rfc:3986"/>
			<value value="09c94590-5ad1-4b52-8bbe-2ed9ca96a985"/>
		</identifier>
			<status value="final"/>
			<code>
				<coding>
						<system value="http://snomed.info/sct"/>
						<code value="764841000000100"/>
						<display value="Looked after child"/>
					</coding>
			</code>
			<subject>
				<reference value="urn:uuid:7368c5fe-bbb4-4e9c-a585-234e06b84e82"/>
			</subject>
			<context>
				<reference value="urn:uuid:12779557-9033-4213-876f-69a670cdf35d"/>
			</context>
			<effectiveDateTime value="2018-02-01"/>
			<performer>
				<reference value="urn:uuid:7368c5fe-bbb4-4e9c-a585-234e06b84e82"/>
			</performer>
			<valueDateTime value="2018-02-01"/>			
		</Observation>
		</resource>
	</entry>

<!--Legal Information Care Plan Start Observation-->
	<entry>
		<fullUrl value="urn:uuid:6a6ae2ae-2564-4f84-a9d3-c0c755a56f6b"/>
		<resource>
		<Observation>
		<id value="6a6ae2ae-2564-4f84-a9d3-c0c755a56f6b"/>
		<meta>
			<profile value="https://fhir.nhs.uk/STU3/StructureDefinition/CareConnect-DCH-LookedAfterChildEndDate-Observation-1"/>
		</meta>
		<identifier>
			<system value="urn:ietf:rfc:3986"/>
			<value value="09c94590-5ad1-4b52-8bbe-2ed9ca96a985"/>
		</identifier>
			<status value="final"/>
			<code>
				<coding>
						<system value="http://snomed.info/sct"/>
						<code value="764951000000107"/>
						<display value="No longer subject of looked after child arrangement"/>
					</coding>
			</code>
			<subject>
				<reference value="urn:uuid:7368c5fe-bbb4-4e9c-a585-234e06b84e82"/>
			</subject>
			<context>
				<reference value="urn:uuid:12779557-9033-4213-876f-69a670cdf35d"/>
			</context>
			<effectiveDateTime value="2018-02-01"/>
			<performer>
				<reference value="urn:uuid:7368c5fe-bbb4-4e9c-a585-234e06b84e82"/>
			</performer>
			<valueDateTime value="2018-02-01"/>			
		</Observation>
		</resource>
	</entry>
	
	<!--Local Authority (LAC)-->
	<entry>
		<fullUrl value="urn:uuid:48833cb6-a2d5-4364-9b08-7d2ef6dacffb"/>
		<resource>
			<Organization>
				<id value="48833cb6-a2d5-4364-9b08-7d2ef6dacffb"/>
				<meta>
					<profile value="https://fhir.nhs.uk/STU3/StructureDefinition/CareConnect-DCH-Organization-1"/>
				</meta>
				<name value="DURHAM COUNTY COUNCIL"/>
			</Organization>
		</resource>
	</entry>
	
	<!--Local Authority (CPP)-->
	<entry>
		<fullUrl value="urn:uuid:c3ebc1ed-1d60-4e15-8dc7-2a4cb6eb7af5"/>
		<resource>
			<Organization>
				<id value="c3ebc1ed-1d60-4e15-8dc7-2a4cb6eb7af5"/>
				<meta>
					<profile value="https://fhir.nhs.uk/STU3/StructureDefinition/CareConnect-DCH-Organization-1"/>
				</meta>
				<name value="DURHAM COUNTY COUNCIL"/>
			</Organization>
		</resource>
	</entry>
	
	<!--Legal Information Encounter details-->
	<entry>
		<fullUrl value="urn:uuid:12779557-9033-4213-876f-69a670cdf35d"/>
		<resource>
			<Encounter>
				<id value="12779557-9033-4213-876f-69a670cdf35d"/>
				<meta>
					<profile value="https://fhir.nhs.uk/STU3/StructureDefinition/CareConnect-DCH-Encounter-1"/>
				</meta>
				<identifier>
					<system value="urn:ietf:rfc:3986"/>
					<value value="bfbd271f-2071-43bc-80ae-6013f86b58f0"/>
				</identifier>
				<status value="finished"/>
				<subject>
					<reference value="urn:uuid:7368c5fe-bbb4-4e9c-a585-234e06b84e82"/>
					<display value="DAWKINS, Jack"/>
				</subject>
				<period>
					<start value="2018-01-29"/>
				</period>
				<location>
					<location>
						<reference value="urn:uuid:813470e9-89e6-418b-a83e-a73f74ade903"/>
						<display value="DURHAM SOCIAL SERVICES"/>
					</location>
				</location>
				<serviceProvider>
					<reference value="urn:uuid:5a293df7-b22f-41b6-8bf1-44248ea59edb"/>
					<display value="DURHAM SOCIAL SERVICES"/>
				</serviceProvider>
			</Encounter>
		</resource>
	</entry>
	
	<!--Location where event took place-->
	<entry>
		<fullUrl value="urn:uuid:813470e9-89e6-418b-a83e-a73f74ade903"/>
		<resource>
			<Location>
				<id value="813470e9-89e6-418b-a83e-a73f74ade903"/>
				<meta>
					<profile value="https://fhir.nhs.uk/STU3/StructureDefinition/CareConnect-DCH-Location-1"/>
				</meta>
				<identifier>
					<system value="https://fhir.nhs.uk/Id/ods-site-code"/>
					<value value="RX3QJ"/>
				</identifier>
				<name value="DURHAM SOCIAL SERVICES"/>
			</Location>
		</resource>
	</entry>
	
</Bundle>
