<?xml version="1.0" encoding="UTF-8"?>
<!--This example message is provided for illustrative purposes only. It has had no clinical validation. Where there are conflicts with the written message specification or schema, the specification or schema shall be considered to take precedence-->
<Bundle xmlns="http://hl7.org/fhir">
	<id value="66aa52a6-4882-11e8-842f-0ed5f89f718b"/>
	<meta>
		<profile value="https://fhir.nhs.uk/STU3/StructureDefinition/DCH-Bundle-1"/>
	</meta>
	<type value="message"/>
	<!--Message Header-->
	<entry>
		<fullUrl value="urn:uuid:85c8a1c5-a8a1-41c9-bb99-20956fa66218"/>
		<resource>
			<MessageHeader>
				<id value="85c8a1c5-a8a1-41c9-bb99-20956fa66218"/>
				<meta>
					<profile value="https://fhir.nhs.uk/STU3/StructureDefinition/DCH-MessageHeader-1"/>
				</meta>
				<extension url="https://fhir.nhs.uk/STU3/StructureDefinition/Extension-DCH-MessageEventType-1">
					<valueCodeableConcept>
						<coding>
							<system value="https://fhir.nhs.uk/STU3/CodeSystem/DCH-MessageEventType-1"/>
							<code value="new"/>
							<display value="New event message"/>
						</coding>
					</valueCodeableConcept>
				</extension>
				<event>
					<system value="https://fhir.nhs.uk/STU3/CodeSystem/DCH-ChildHealthEventType-1"/>
					<code value="CH026"/>
					<display value="Professional Comment"/>
				</event>
				<timestamp value="2017-02-14T15:00:00+00:00"/>
				<source>
					<endpoint value="urn:nhs-uk:addressing:ods:A83627"/>
				</source>
				<responsible>
					<reference value="urn:uuid:3ff6d789-af64-4d9c-aa1d-0087d29e9e1c"/>
					<display value="SILVERDALE FAMILY PRACTICE"/>
				</responsible>
				<focus>
					<reference value="urn:uuid:0b5365ea-5eb5-4119-bfad-c6dfe0874b1b"/>
				</focus>
			</MessageHeader>
		</resource>
	</entry>
	<!--Responsible Org (MessageHeader.responsible)-->
	<entry>
		<fullUrl value="urn:uuid:3ff6d789-af64-4d9c-aa1d-0087d29e9e1c"/>
		<resource>
			<Organization>
				<id value="3ff6d789-af64-4d9c-aa1d-0087d29e9e1c"/>
				<meta>
					<profile value="https://fhir.hl7.org.uk/STU3/StructureDefinition/CareConnect-Organization-1"/>
				</meta>
				<identifier>
					<system value="https://fhir.nhs.uk/Id/ods-organization-code"/>
					<value value="A83627"/>
				</identifier>
				<name value="SILVERDALE FAMILY PRACTICE"/>
				<address>
					<line value="FRONT STREET"/>
					<line value="SOUTH HETTON"/>
					<city value="DURHAM"/>
					<district value="COUNTY DURHAM"/>
					<postalCode value="DH6 2TH"/>
				</address>
			</Organization>
		</resource>
	</entry>
	<!--Healthcare service used e.g GP, trust, etc..-->
	<entry>
		<fullUrl value="urn:uuid:5a293df7-b22f-41b6-8bf1-44248ea59edb"/>
		<resource>
			<HealthcareService>
				<id value="5a293df7-b22f-41b6-8bf1-44248ea59edb"/>
				<meta>
					<profile value="https://fhir.nhs.uk/STU3/StructureDefinition/DCH-HealthcareService-1"/>
				</meta>
				<providedBy>
					<reference value="urn:uuid:3ff6d789-af64-4d9c-aa1d-0087d29e9e1c"/>
					<display value="SILVERDALE FAMILY PRACTICE"/>
				</providedBy>
				<type>
					<coding>
						<system value="http://snomed.info/sct"/>
						<code value="1060971000000108"/>
						<display value="General practice service"/>
					</coding>
				</type>
				<location>
					<reference value="urn:uuid:e3177167-40fc-4f1a-80f2-a2f17f18fde7"/>
				</location>
				<telecom>
					<system value="phone"/>
					<value value="0191 1231234"/>
				</telecom>
			</HealthcareService>
		</resource>
	</entry>
	<!--Child Details (Jack Dawkins)-->
	<entry>
		<fullUrl value="urn:uuid:5d5845f3-398f-474b-af59-14882fc7b0ca"/>
		<resource>
			<Patient>
				<id value="5d5845f3-398f-474b-af59-14882fc7b0ca"/>
				<meta>
					<profile value="https://fhir.nhs.uk/STU3/StructureDefinition/CareConnect-DCH-Patient-1"/>
				</meta>
				<identifier>
					<extension url="https://fhir.hl7.org.uk/STU3/StructureDefinition/Extension-CareConnect-NHSNumberVerificationStatus-1">
						<valueCodeableConcept>
							<coding>
								<system value="https://fhir.hl7.org.uk/STU3/CodeSystem/CareConnect-NHSNumberVerificationStatus-1"/>
								<code value="01"/>
								<display value="Number present and verified"/>
							</coding>
						</valueCodeableConcept>
					</extension>
					<system value="https://fhir.nhs.uk/Id/nhs-number"/>
					<value value="9912003888"/>
				</identifier>
				<name>
					<use value="official"/>
					<family value="DAWKINS"/>
					<given value="Jack"/>
				</name>
				<gender value="male"/>
				<birthDate value="2013-10-12">
					<extension url="http://hl7.org/fhir/StructureDefinition/patient-birthTime">
						<valueDateTime value="2017-10-02T12:00:00+00:00"/>
					</extension>
				</birthDate>
				<address>
					<use value="home"/>
					<line value="4 Sandmoor Drive"/>
					<city value="DURHAM"/>
					<postalCode value="DH1 2TF"/>
				</address>
			</Patient>
		</resource>
	</entry>
	<!--Professional Comment-->
	<entry>
		<fullUrl value="urn:uuid:5812bce1-58c4-43c0-bd17-30d5a567d87e"/>
		<resource>
			<Communication>
				<id value="5812bce1-58c4-43c0-bd17-30d5a567d87e"/>
				<meta>
					<profile value="https://fhir.nhs.uk/STU3/StructureDefinition/DCH-ProfessionalComment-Communication-1"/>
				</meta>
				<status value="completed"/>
				<category>
					<coding>
						<system value="https://fhir.nhs.uk/STU3/CodeSystem/DCH-ProfessionalCommentType-1"/>
						<code value="006"/>
						<display value="Immunisations"/>
					</coding>
				</category>
				<subject>
					<reference value="urn:uuid:5d5845f3-398f-474b-af59-14882fc7b0ca"/>
				</subject>
				<context>
					<reference value="urn:uuid:0b5365ea-5eb5-4119-bfad-c6dfe0874b1b"/>
				</context>
				<sent value="2017-02-14"/>
				<sender>
					<reference value="urn:uuid:5a293df7-b22f-41b6-8bf1-44248ea59edb"/>
				</sender>
				<payload>
					<contentString value="Second MMR vacinnation administered to Jack"/>
				</payload>
			</Communication>
		</resource>
	</entry>
	<!--Encounter details-->
	<entry>
		<fullUrl value="urn:uuid:0b5365ea-5eb5-4119-bfad-c6dfe0874b1b"/>
		<resource>
			<Encounter>
				<id value="0b5365ea-5eb5-4119-bfad-c6dfe0874b1b"/>
				<meta>
					<profile value="https://fhir.nhs.uk/STU3/StructureDefinition/CareConnect-DCH-Encounter-1"/>
				</meta>
				<status value="finished"/>
				<subject>
					<reference value="urn:uuid:5d5845f3-398f-474b-af59-14882fc7b0ca"/>
					<display value="DAWKINS, Jack"/>
				</subject>
				<period>
					<start value="2017-02-14"/>
				</period>
				<location>
					<location>
						<reference value="urn:uuid:e3177167-40fc-4f1a-80f2-a2f17f18fde7"/>
						<display value="SILVERDALE FAMILY PRACTICE"/>
					</location>
				</location>
				<serviceProvider>
					<reference value="urn:uuid:e3177167-40fc-4f1a-80f2-a2f17f18fde7"/>
					<display value="SILVERDALE FAMILY PRACTICE"/>
				</serviceProvider>
			</Encounter>
		</resource>
	</entry>
	<!--Practitioner from Encounter-->
	<entry>
		<fullUrl value="urn:uuid:285e33ce-918f-406b-b971-f253fe53160e"/>
		<resource>
			<Practitioner>
				<id value="285e33ce-918f-406b-b971-f253fe53160e"/>
				<meta>
					<profile value="https://fhir.nhs.uk/STU3/StructureDefinition/CareConnect-DCH-Practitioner-1"/>
				</meta>
				<identifier>
					<system value="https://fhir.nhs.uk/Id/sds-role-profile-id"/>
					<value value="PT2468"/>
				</identifier>
				<name>
					<family value="Emmanuel"/>
					<given value="Gladys"/>
					<prefix value="Dr."/>
				</name>
			</Practitioner>
		</resource>
	</entry>
	<!--Practitioner Role-->
	<entry>
		<fullUrl value="urn:uuid:b7e3cc3a-9120-49fe-801c-2793b80ca922"/>
		<resource>
			<PractitionerRole>
				<id value="b7e3cc3a-9120-49fe-801c-2793b80ca922"/>
				<meta>
					<profile value="https://fhir.nhs.uk/STU3/StructureDefinition/CareConnect-DCH-PractitionerRole-1"/>
				</meta>
				<identifier>
					<system value="https://fhir.nhs.uk/Id/sds-role-profile-id"/>
					<value value="PT2468"/>
				</identifier>
				<practitioner>
					<reference value="urn:uuid:285e33ce-918f-406b-b971-f253fe53160e"/>
				</practitioner>
				<organization>
					<reference value="urn:uuid:e3177167-40fc-4f1a-80f2-a2f17f18fde7"/>
				</organization>
			</PractitionerRole>
		</resource>
	</entry>
	<!--Location where event took place-->
	<entry>
		<fullUrl value="urn:uuid:e3177167-40fc-4f1a-80f2-a2f17f18fde7"/>
		<resource>
			<Location>
				<id value="e3177167-40fc-4f1a-80f2-a2f17f18fde7"/>
				<meta>
					<profile value="https://fhir.hl7.org.uk/STU3/StructureDefinition/CareConnect-Location-1"/>
				</meta>
				<identifier>
					<system value="https://fhir.nhs.uk/Id/ods-site-code"/>
					<value value="A83627"/>
				</identifier>
				<name value="SILVERDALE FAMILY PRACTICE"/>
			</Location>
		</resource>
	</entry>
</Bundle>
