<?xml version="1.0" encoding="UTF-8"?>
<!--This example message is provided for illustrative purposes only. It has had no clinical validation. Where there are conflicts with the written message specification or schema, the specification or schema shall be considered to take precedence-->
<Bundle xmlns="http://hl7.org/fhir" xmlns:xsi="http://www.w3.org/2001/XMLSchema-instance" xsi:schemaLocation="http://hl7.org/fhir file:///C:/stu3/bundle.xsd">
	<id value="a8ca980c-72aa-11e7-8cf7-a6006ad3dba0"/>
	<meta>
		<profile value="https://fhir.nhs.uk/StructureDefinition/DCH-Bundle-1"/>
	</meta>
	<type value="message"/>
	<!--Message Header-->
		<entry>
		<fullUrl value="urn:uuid:85c8a1c5-a8a1-41c9-bb99-20956fa66218"/>
		<resource>
			<MessageHeader>
				<id value="85c8a1c5-a8a1-41c9-bb99-20956fa66218"/>
				<meta>
					<profile value="https://fhir.nhs.uk/STU3/StructureDefinition/DCH-MessageHeader-1"/>
				</meta>
				<extension url="https://fhir.nhs.uk/STU3/StructureDefinition/Extension-DCH-MessageEventType-1">
					<valueCodeableConcept>
						<coding>
							<system value="https://fhir.nhs.uk/STU3/CodeSystem/DCH-MessageEventType-1"/>
							<code value="new"/>
							<display value="New event message"/>
						</coding>
					</valueCodeableConcept>
				</extension>
				<event>
					<system value="https://fhir.nhs.uk/STU3/CodeSystem/DCH-ChildHealthEventType-1"/>
					<code value="CH010"/>
					<display value="Early Years Progress"/>
				</event>
				<timestamp value="2017-11-01T15:00:00+00:00"/>
				<source>
					<endpoint value="urn:nhs-uk:addressing:ods:A83627"/>
				</source>
				<responsible>
					<reference value="urn:uuid:3ff6d789-af64-4d9c-aa1d-0087d29e9e1c"/>
					<display value="SILVERDALE FAMILY PRACTICE"/>
				</responsible>
				<focus>
					<reference value="urn:uuid:12779557-9033-4213-876f-69a670cdf35d"/>
				</focus>
			</MessageHeader>
		</resource>
	</entry>
	<!--Responsible Org (MessageHeader.responsible)-->
	<entry>
		<fullUrl value="urn:uuid:3ff6d789-af64-4d9c-aa1d-0087d29e9e1c"/>
		<resource>
			<Organization>
				<id value="3ff6d789-af64-4d9c-aa1d-0087d29e9e1c"/>
				<meta>
					<profile value="https://fhir.nhs.uk/STU3/StructureDefinition/CareConnect-Organization-1"/>
				</meta>
				<identifier>
					<system value="https://fhir.nhs.uk/Id/ods-organization-code"/>
					<value value="A83627"/>
				</identifier>
				<name value="SILVERDALE FAMILY PRACTICE"/>
				<address>
					<line value="FRONT STREET"/>
					<line value="SOUTH HETTON"/>
					<city value="DURHAM"/>
					<district value="COUNTY DURHAM"/>
					<postalCode value="DH6 2TF"/>
				</address>
			</Organization>
		</resource>
	</entry>
	<!--Healthcare service used e.g GP, trust, etc..-->
	<entry>
		<fullUrl value="urn:uuid:5a293df7-b22f-41b6-8bf1-44248ea59edb"/>
		<resource>
			<HealthcareService>
				<id value="2db9a96b-393f-4817-868f-3e064296f1f9"/>
				<meta>
					<profile value="https://fhir.nhs.uk/STU3/StructureDefinition/EMS-HealthcareService-1"/>
				</meta>
				<identifier>
					<system value="urn:ietf:rfc:3986"/>
					<value value="2db9a96b-393f-4817-868f-3e064296f1f9"/>
				</identifier>
				<providedBy>
					<reference value="urn:uuid:3ff6d789-af64-4d9c-aa1d-0087d29e9e1c"/>
					<display value="SILVERDALE FAMILY PRACTICE"/>
				</providedBy>
				<specialty>
					<coding>
						<system value="https://fhir.nhs.uk/STU3/CodeSystem/DCH-Specialty-1"/>
						<code value="600"/>
						<display value="GENERAL MEDICAL PRACTICE"/>
					</coding>
				</specialty>
			</HealthcareService>
		</resource>
	</entry>
	
		<!-- Patient-->
	<entry>
		<fullUrl value="urn:uuid:7368c5fe-bbb4-4e9c-a585-234e06b84e82"/>
		<resource>
			<Patient>
				<id value="7368c5fe-bbb4-4e9c-a585-234e06b84e82"/>
				<meta>
					<profile value="https://fhir.hl7.org.uk/STU3/StructureDefinition/CareConnect-Baby-Patient-1"/>
				</meta>
				<identifier>
					<extension url="https://fhir.hl7.org.uk/STU3/StructureDefinition/Extension-CareConnect-NHSNumberVerificationStatus-1">
						<valueCodeableConcept>
							<coding>
								<system value="https://fhir.hl7.org.uk/STU3/CareConnect-NHSNumberVerificationStatus-1"/>
								<code value="01"/>
								<display value="Number present and verified"/>
							</coding>
						</valueCodeableConcept>
					</extension>
					<extension url="http://hl7.org/fhir/StructureDefinition/birthPlace">
						<valueAddress>
							<city value="DURHAM"/>
							<district value="West Yorkshire"/>
							<country value="UK"/>
						</valueAddress>
					</extension>
					<system value="https://fhir.nhs.uk/Id/nhs-number"/>
					<value value="9912003888"/>
				</identifier>
				<identifier>
					<system value="https://fhir.nhs.uk/Id/local-patient-identifier"/>
					<value value="123456"/>
				</identifier>
				<name>
					<family value="DAWKINS"/>
					<given value="Jack"/>
				</name>
				<birthDate value="2017-10-02">
					<extension url="http://hl7.org/fhir/StructureDefinition/patient-birthTime">
						<valueDateTime value="2017-10-02T20:12:00+00:00"/>
					</extension>
				</birthDate>
				<address>
					<use value="home"/>
					<line value="4 Sandmoor Drive"/>
					<city value="DURHAM"/>
					<postalCode value="DH1 2TF"/>
				</address>
				<multipleBirthInteger value="1"/>
			</Patient>
		</resource>
	</entry>
	
	<!--Encounter details-->
	<entry>
		<fullUrl value="urn:uuid:a8ca9fe6-72aa-11e7-8cf7-a6006ad3dba0"/>
		<resource>
			<Encounter>
				<id value="a8ca9fe6-72aa-11e7-8cf7-a6006ad3dba0"/>
				<meta>
					<profile value="https://fhir.nhs.uk/StructureDefinition/CareConnect-DCH-Encounter-1"/>
				</meta>
				<identifier>
					<system value="urn:ietf:rfc:3986"/>
					<value value="a8ca9fe6-72aa-11e7-8cf7-a6006ad3dba0"/>
				</identifier>
				<status value="finished"/>
				<type>
					<coding>
						<system value="https://fhir.nhs.uk/STU3/CodeSystem/DCH-ChildHealthEventType-1"/>
						<code value="Early Years Progress"/>
						<display value="Early Years Progress"/>
					</coding>
				</type>
				<subject>
					<reference value="urn:uuid:7368c5fe-bbb4-4e9c-a585-234e06b84e82"/>
					<display value="DAWKINS, Jack"/>
				</subject>
				<participant>
					<type>
						<coding>
							<system value="http://hl7.org/fhir/v3/ParticipationType"/>
							<code value="PPRF"/>
							<display value="primary performer"/>
						</coding>
					</type>
					<individual>
						<reference value="urn:uuid:e9dbf8e8-5bdc-11e7-907b-a6006ad3dba0"/>
						<display value="JONES, Bob (Dr.)"/>
					</individual>
				</participant>
				<period>
					<start value="2012-01-29T09:00:00"/>
				</period>
				<location>
					<location>
						<reference value="e3177167-40fc-4f1a-80f2-a2f17f18fde7"/>
						<display value="Silverdale Family Practice"/>
					</location>
				</location>
				<serviceProvider>
					<reference value="urn:uuid:e3177167-40fc-4f1a-80f2-a2f17f18fde7"/>
					<display value="SILVERDALE FAMILY PRACTICE"/>
				</serviceProvider>
			</Encounter>
		</resource>
	</entry>
	<!--Medication Administration-->
	<entry>
		<fullUrl value="urn:uuid:a8ca9fe6-72aa-11e7-8cf7-a6006ad3dba0"/>
		<resource>
			<MedicationAdministration>
				<id value="a8ca9fe6-72aa-11e7-8cf7-a6006ad3dba0"/>
				<meta>
					<profile value="https://fhir.nhs.uk/STU3/StructureDefinition/DCH-MedicationAdministration-1"/>
				</meta>
				<identifier>
					<system value="urn:ietf:rfc:3986"/>
					<value value="a8ca9fe6-72aa-11e7-8cf7-a6006ad3dba0"/>
				</identifier>
				<status value="completed"/>
				<medicationReference>
					<reference value="urn:uuid:1d401368-54fb-4280-809a-a375fd70a48b"/>
				</medicationReference>
				<subject>
					<reference value="urn:uuid:7368c5fe-bbb4-4e9c-a585-234e06b84e82"/>
				</subject>
				<context>
					<reference value="urn:uuid:a8ca9fe6-72aa-11e7-8cf7-a6006ad3dba0"/>
				</context>
				<effectiveDateTime value="2018-02-01T09:00:00"/>
				<performer>
					<actor>
						<reference value="urn:uuid:e9dbf8e8-5bdc-11e7-907b-a6006ad3dba0"/>
					</actor>
				</performer>
				<dosage>
					<route>
					<coding>
						<system value="http://snomed.info/sct"/>
						<code value="26643006"/>
						<display value="Oral route"/>
					</coding>
					</route>
				</dosage>
			</MedicationAdministration>
		</resource>
	</entry>	
	
	<!--Medication-->
	<entry>
		<fullUrl value="urn:uuid:1d401368-54fb-4280-809a-a375fd70a48b"/>
		<resource>
			
			<Medication>
				<id value="a8ca9fe6-72aa-11e7-8cf7-a6006ad3dba0"/>
				<meta>
					<profile value="https://fhir.nhs.uk/STU3/StructureDefinition/CareConnect-DCH-Medication-1"/>
				</meta>
				<code>
					<coding>
						<system value="http://snomed.info/sct"/>
						<code value="34875311000001105"/>
						<display value="Generic D3 Drops with K2 oral drops sugar free"/>
					</coding>
				</code>
				<form>
					<coding>
						<system value="http://snomed.info/sct"/>
						<code value="385018001"/>
						<display value="Oral drops"/>
					</coding>
				</form>
			</Medication>
		</resource>
	</entry>
	
	<!--Medication Encounter details-->
	<entry>
		<fullUrl value="urn:uuid:a8ca9fe6-72aa-11e7-8cf7-a6006ad3dba0"/>
		<resource>
			<Encounter>
				<id value="a8ca9fe6-72aa-11e7-8cf7-a6006ad3dba0"/>
				<meta>
					<profile value="https://fhir.nhs.uk/StructureDefinition/CareConnect-DCH-Encounter-1"/>
				</meta>
				<identifier>
					<system value="urn:ietf:rfc:3986"/>
					<value value="a8ca9fe6-72aa-11e7-8cf7-a6006ad3dba0"/>
				</identifier>
				<status value="finished"/>
				<type>
					<coding>
						<system value="https://fhir.nhs.uk/STU3/CodeSystem/DCH-ChildHealthEventType-1"/>
						<code value="CH018"/>
						<display value="Measurements"/>
					</coding>
				</type>
				<subject>
					<reference value="urn:uuid:7368c5fe-bbb4-4e9c-a585-234e06b84e82"/>
					<display value="DAWKINS, Jack"/>
				</subject>
				<participant>
					<type>
						<coding>
							<system value="http://hl7.org/fhir/v3/ParticipationType"/>
							<code value="PPRF"/>
							<display value="primary performer"/>
						</coding>
					</type>
					<individual>
						<reference value="urn:uuid:e9dbf8e8-5bdc-11e7-907b-a6006ad3dba0"/>
						<display value="Strange, Stephen (Dr.)"/>
					</individual>
				</participant>
				<period>
					<start value="2012-01-29T09:00:00"/>
				</period>
				<location>
					<location>
						<reference value="e3177167-40fc-4f1a-80f2-a2f17f18fde7"/>
						<display value="Silverdale Family Practice"/>
					</location>
				</location>
				<serviceProvider>
					<reference value="urn:uuid:e3177167-40fc-4f1a-80f2-a2f17f18fde7"/>
					<display value="SILVERDALE FAMILY PRACTICE"/>
				</serviceProvider>
			</Encounter>
		</resource>
	</entry>
	
<!--Practitioner from Encounter-->
	<entry>
		<fullUrl value="urn:uuid:e9dbf8e8-5bdc-11e7-907b-a6006ad3dba0"/>
		<resource>
			<Practitioner>
				<id value="e9dbf8e8-5bdc-11e7-907b-a6006ad3dba0"/>
				<meta>
					<profile value="https://fhir.hl7.org.uk/StructureDefinition/CareConnect-DCH-Practitioner-1"/>
				</meta>
				<identifier>
					<system value="https://fhir.nhs.uk/Id/sds-role-profile-id"/>
					<value value="PT2468"/>
				</identifier>
				<name>
					<family value="Strange"/>
					<given value="Stephen"/>
					<prefix value="Dr."/>
				</name>
			</Practitioner>
		</resource>
	</entry>
	<!--Location where event took place-->
	<entry>
		<fullUrl value="urn:uuid:e3177167-40fc-4f1a-80f2-a2f17f18fde7"/>
		<resource>
			<Location>
				<id value="e3177167-40fc-4f1a-80f2-a2f17f18fde7"/>
				<meta>
					<profile value="https://fhir.hl7.org.uk/StructureDefinition/CareConnect-DCH-Location-1"/>
				</meta>
				<identifier>
					<system value="https://fhir.nhs.uk/Id/ods-site-code"/>
					<value value="A83627"/>
				</identifier>
				<name value="SILVERDALE FAMILY PRACTICE"/>
			</Location>
		</resource>
	</entry>
</Bundle>
