<?xml version="1.0" encoding="UTF-8"?>
<Bundle xmlns="http://hl7.org/fhir">
	<id value="443a4d20-4c32-4cef-944c-7a153896f6ac"/>
	<meta>
		<profile value="https://fhir.nhs.uk/STU3/StructureDefinition/DCH-Bundle-1"/>
	</meta>
	<type value="message"/>
	<entry>
		<fullUrl value="urn:uuid:9d2e2cd9-ffe1-49c7-be43-f36e30564d3f"/>
		<resource>
			<MessageHeader>
				<id value="9d2e2cd9-ffe1-49c7-be43-f36e30564d3f"/>
				<meta>
					<profile value="https://fhir.nhs.uk/STU3/StructureDefinition/DCH-MessageHeader-1"/>
				</meta>
				<extension url="https://fhir.nhs.uk/STU3/StructureDefinition/Extension-DCH-MessageEventType-1">
					<valueCodeableConcept>
						<coding>
							<system value="https://fhir.nhs.uk/STU3/CodeSystem/DCH-MessageEventType-1"/>
							<code value="new"/>
							<display value="New event message"/>
						</coding>
					</valueCodeableConcept>
				</extension>
				<event>
					<system value="https://fhir.nhs.uk/STU3/CodeSystem/DCH-ChildHealthEventType-1"/>
					<code value="CH035"/>
					<display value="Blood Spot Test Outcome"/>
				</event>
				<destination>
					<endpoint value="urn:nhs:addressing:asid:477121000325"/>
				</destination>	
				<timestamp value="2017-11-01T15:00:00+00:00"/>
				<source>
					<endpoint value="urn:nhs:addressing:asid:300000000161"/>
				</source>
				<responsible>
					<reference value="urn:uuid:33a33b58-648a-4453-b981-e21ea9ebc6ea"/>
					<display value="UNIVERSITY HOSPITAL OF NORTH DURHAM"/>
				</responsible>
				<focus>
					<reference value="urn:uuid:1bcb0151-4ddf-4084-9c06-e8a31fdcf25b"/>
				</focus>
			</MessageHeader>
		</resource>
	</entry>
	<!--Responsible Org Blood Spot-->
	<entry>
		<fullUrl value="urn:uuid:33a33b58-648a-4453-b981-e21ea9ebc6ea"/>
		<resource>
			<Organization>
				<id value="33a33b58-648a-4453-b981-e21ea9ebc6ea"/>
				<meta>
					<profile value="https://fhir.hl7.org.uk/STU3/StructureDefinition/CareConnect-Organization-1"/>
				</meta>
				<identifier>
					<system value="https://fhir.nhs.uk/Id/ods-organization-code"/>
					<value value="RR8"/>
				</identifier>
				<name value="UNIVERSITY HOSPITAL OF NORTH DURHAM"/>
				<address>
					<line value="NORTH ROAD"/>
					<city value="DURHAM"/>
					<district value="COUNTY DURHAM"/>
					<postalCode value="DH1 5TW"/>
				</address>
			</Organization>
		</resource>
	</entry>
	<!--Healthcare service used e.g GP, trust, etc..-->
	<entry>
		<fullUrl value="urn:uuid:5a293df7-b22f-41b6-8bf1-44248ea59edb"/>
		<resource>
			<HealthcareService>
				<id value="5a293df7-b22f-41b6-8bf1-44248ea59edb"/>
				<meta>
					<profile value="https://fhir.nhs.uk/STU3/StructureDefinition/DCH-HealthcareService-1"/>
				</meta>
				<providedBy>
					<reference value="urn:uuid:33a33b58-648a-4453-b981-e21ea9ebc6ea"/>
					<display value="UNIVERSITY HOSPITAL OF NORTH DURHAM"/>
				</providedBy>
				<type>
					<coding>
						<system value="http://snomed.info/sct"/>
						<code value="708196005"/>
						<display value="Haematology service"/>
					</coding>
				</type>
				<location>
					<reference value="urn:uuid:02692f55-56cf-4dda-8ef5-e9ec13f6bd99"/>
				</location>
				<telecom>
					<system value="phone"/>
					<value value="0191 1231234"/>
				</telecom>
			</HealthcareService>
		</resource>
	</entry>
	<!--Child Details (Jack Dawkins)-->
	<entry>
		<fullUrl value="urn:uuid:5d5845f3-398f-474b-af59-14882fc7b0ca"/>
		<resource>
			<Patient>
				<id value="5d5845f3-398f-474b-af59-14882fc7b0ca"/>
				<meta>
					<profile value="https://fhir.nhs.uk/STU3/StructureDefinition/CareConnect-DCH-Patient-1"/>
				</meta>
				<identifier>
					<extension url="https://fhir.hl7.org.uk/STU3/StructureDefinition/Extension-CareConnect-NHSNumberVerificationStatus-1">
						<valueCodeableConcept>
							<coding>
								<system value="https://fhir.hl7.org.uk/STU3/CodeSystem/CareConnect-NHSNumberVerificationStatus-1"/>
								<code value="01"/>
								<display value="Number present and verified"/>
							</coding>
						</valueCodeableConcept>
					</extension>
					<system value="https://fhir.nhs.uk/Id/nhs-number"/>
					<value value="9912003888"/>
				</identifier>
				<name>
					<use value="official"/>
					<family value="DAWKINS"/>
					<given value="Jack"/>
				</name>
				<gender value="male"/>
				<birthDate value="2013-10-12">
					<extension url="http://hl7.org/fhir/StructureDefinition/patient-birthTime">
						<valueDateTime value="2017-10-02T12:00:00+00:00"/>
					</extension>
				</birthDate>
				<address>
					<use value="home"/>
					<line value="4 Sandmoor Drive"/>
					<city value="DURHAM"/>
					<postalCode value="DH1 2TF"/>
				</address>
			</Patient>
		</resource>
	</entry>
	<!--Blood Spot Test PKU Procedure-->
	<entry>
		<fullUrl value="urn:uuid:796a220c-7888-46ac-962e-46c971e1dbdf"/>
		<resource>
			<Procedure>
				<id value="796a220c-7888-46ac-962e-46c971e1dbdf"/>
				<meta>
					<profile value="https://fhir.nhs.uk/STU3/StructureDefinition/CareConnect-DCH-NewbornBloodSpotScreeningPKU-Procedure-1"/>
				</meta>
				<status value="completed"/>
				<code>
					<coding>
						<system value="http://snomed.info/sct"/>
						<code value="314081000"/>
						<display value="Phenylketonuria screening test"/>
					</coding>
				</code>
				<subject>
					<reference value="urn:uuid:5d5845f3-398f-474b-af59-14882fc7b0ca"/>
				</subject>
				<context>
					<reference value="urn:uuid:1bcb0151-4ddf-4084-9c06-e8a31fdcf25b"/>
				</context>
				<outcome>
					<coding>
						<system value="https://fhir.nhs.uk/STU3/CodeSystem/DCH-BloodSpotOutcomePKU-1"/>
						<code value="4"/>
						<display value="Condition not suspected"/>
					</coding>
				</outcome>
				<report>
					<reference value="urn:uuid:4ae3b640-a32b-4879-8c6c-3896ac19da74"/>
				</report>
			</Procedure>
		</resource>
	</entry>
	<!--Blood Spot Test SCD Procedure-->
	<entry>
		<fullUrl value="urn:uuid:feeddff6-9eee-4856-8dc1-819bea6abbce"/>
		<resource>
			<Procedure>
				<id value="feeddff6-9eee-4856-8dc1-819bea6abbce"/>
				<meta>
					<profile value="https://fhir.nhs.uk/STU3/StructureDefinition/CareConnect-DCH-NewbornBloodSpotScreeningSCD-Procedure-1"/>
				</meta>
				<status value="completed"/>
				<code>
					<coding>
						<system value="http://snomed.info/sct"/>
						<code value="314090007"/>
						<display value="Sickle cell disease screening test"/>
					</coding>
				</code>
				<subject>
					<reference value="urn:uuid:5d5845f3-398f-474b-af59-14882fc7b0ca"/>
				</subject>
				<context>
					<reference value="urn:uuid:1bcb0151-4ddf-4084-9c06-e8a31fdcf25b"/>
				</context>
				<outcome>
					<coding>
						<system value="https://fhir.nhs.uk/STU3/CodeSystem/DCH-BloodSpotOutcomeSCD-1"/>
						<code value="04"/>
						<display value="Condition not suspected"/>
					</coding>
				</outcome>
				<report>
					<reference value="urn:uuid:4ae3b640-a32b-4879-8c6c-3896ac19da74"/>
				</report>
			</Procedure>
		</resource>
	</entry>
	<!--Blood Spot Test CF Procedure-->
	<entry>
		<fullUrl value="urn:uuid:47ac4243-bda0-4988-adbb-afede243c226"/>
		<resource>
			<Procedure>
				<id value="47ac4243-bda0-4988-adbb-afede243c226"/>
				<meta>
					<profile value="https://fhir.nhs.uk/STU3/StructureDefinition/CareConnect-DCH-NewbornBloodSpotScreeningCF-Procedure-1"/>
				</meta>
				<status value="completed"/>
				<code>
					<coding>
						<system value="http://snomed.info/sct"/>
						<code value="314080004"/>
						<display value="Cystic fibrosis screening test"/>
					</coding>
				</code>
				<subject>
					<reference value="urn:uuid:5d5845f3-398f-474b-af59-14882fc7b0ca"/>
				</subject>
				<context>
					<reference value="urn:uuid:1bcb0151-4ddf-4084-9c06-e8a31fdcf25b"/>
				</context>
				<outcome>
					<coding>
						<system value="https://fhir.nhs.uk/STU3/CodeSystem/DCH-BloodSpotOutcomeCF-1"/>
						<code value="04"/>
						<display value="Condition not suspected"/>
					</coding>
				</outcome>
				<report>
					<reference value="urn:uuid:4ae3b640-a32b-4879-8c6c-3896ac19da74"/>
				</report>
			</Procedure>
		</resource>
	</entry>
	<!--Blood Spot Test CHT Procedure-->
	<entry>
		<fullUrl value="urn:uuid:78d24725-9964-4d28-bc01-ccbf946c3be6"/>
		<resource>
			<Procedure>
				<id value="78d24725-9964-4d28-bc01-ccbf946c3be6"/>
				<meta>
					<profile value="https://fhir.nhs.uk/STU3/StructureDefinition/CareConnect-DCH-NewbornBloodSpotScreeningCHT-Procedure-1"/>
				</meta>
				<status value="completed"/>
				<code>
					<coding>
						<system value="http://snomed.info/sct"/>
						<code value="400984005"/>
						<display value="Congenital hypothyroidism screening test"/>
					</coding>
				</code>
				<subject>
					<reference value="urn:uuid:5d5845f3-398f-474b-af59-14882fc7b0ca"/>
				</subject>
				<context>
					<reference value="urn:uuid:1bcb0151-4ddf-4084-9c06-e8a31fdcf25b"/>
				</context>
				<outcome>
					<coding>
						<system value="https://fhir.nhs.uk/STU3/CodeSystem/DCH-BloodSpotOutcomeCHT-1"/>
						<code value="04"/>
						<display value="Condition not suspected"/>
					</coding>
				</outcome>
				<report>
					<reference value="urn:uuid:4ae3b640-a32b-4879-8c6c-3896ac19da74"/>
				</report>
			</Procedure>
		</resource>
	</entry>
	<!--Blood Spot Test MCADD Procedure-->
	<entry>
		<fullUrl value="urn:uuid:036f2447-dd0f-499d-9f00-00b27edfb8d1"/>
		<resource>
			<Procedure>
				<id value="036f2447-dd0f-499d-9f00-00b27edfb8d1"/>
				<meta>
					<profile value="https://fhir.nhs.uk/STU3/StructureDefinition/CareConnect-DCH-NewbornBloodSpotScreeningMCADD-Procedure-1"/>
				</meta>
				<status value="completed"/>
				<code>
					<coding>
						<system value="http://snomed.info/sct"/>
						<code value="428056008"/>
						<display value="Medium-chain acyl-coenzyme A dehydrogenase deficiency screening test"/>
					</coding>
				</code>
				<subject>
					<reference value="urn:uuid:5d5845f3-398f-474b-af59-14882fc7b0ca"/>
				</subject>
				<context>
					<reference value="urn:uuid:1bcb0151-4ddf-4084-9c06-e8a31fdcf25b"/>
				</context>
				<outcome>
					<coding>
						<system value="https://fhir.nhs.uk/STU3/CodeSystem/DCH-BloodSpotOutcomeMCADD-1"/>
						<code value="04"/>
						<display value="Condition not suspected"/>
					</coding>
				</outcome>
				<report>
					<reference value="urn:uuid:4ae3b640-a32b-4879-8c6c-3896ac19da74"/>
				</report>
			</Procedure>
		</resource>
	</entry>
	<!--Blood Spot Test HCU Procedure-->
	<entry>
		<fullUrl value="urn:uuid:f14c5e57-c588-427b-9b39-c81b20541985"/>
		<resource>
			<Procedure>
				<id value="f14c5e57-c588-427b-9b39-c81b20541985"/>
				<meta>
					<profile value="https://fhir.nhs.uk/STU3/StructureDefinition/CareConnect-DCH-NewbornBloodSpotScreeningHCU-Procedure-1"/>
				</meta>
				<status value="completed"/>
				<code>
					<coding>
						<system value="http://snomed.info/sct"/>
						<code value="940201000000107"/>
						<display value="Blood spot homocystinuria screening test"/>
					</coding>
				</code>
				<subject>
					<reference value="urn:uuid:5d5845f3-398f-474b-af59-14882fc7b0ca"/>
				</subject>
				<context>
					<reference value="urn:uuid:1bcb0151-4ddf-4084-9c06-e8a31fdcf25b"/>
				</context>
				<outcome>
					<coding>
						<system value="https://fhir.nhs.uk/STU3/CodeSystem/DCH-BloodSpotOutcomeHCU-1"/>
						<code value="04"/>
						<display value="Condition not suspected"/>
					</coding>
				</outcome>
				<report>
					<reference value="urn:uuid:4ae3b640-a32b-4879-8c6c-3896ac19da74"/>
				</report>
			</Procedure>
		</resource>
	</entry>
	<!--Blood Spot Test MSUD Procedure-->
	<entry>
		<fullUrl value="urn:uuid:f818d131-502a-4f80-bee7-ee3fd08d31e3"/>
		<resource>
			<Procedure>
				<id value="f818d131-502a-4f80-bee7-ee3fd08d31e3"/>
				<meta>
					<profile value="https://fhir.nhs.uk/STU3/StructureDefinition/CareConnect-DCH-NewbornBloodSpotScreeningMSUD-Procedure-1"/>
				</meta>
				<status value="completed"/>
				<code>
					<coding>
						<system value="http://snomed.info/sct"/>
						<code value="940221000000103"/>
						<display value="Blood spot maple syrup urine disease screening test"/>
					</coding>
				</code>
				<subject>
					<reference value="urn:uuid:5d5845f3-398f-474b-af59-14882fc7b0ca"/>
				</subject>
				<context>
					<reference value="urn:uuid:1bcb0151-4ddf-4084-9c06-e8a31fdcf25b"/>
				</context>
				<outcome>
					<coding>
						<system value="https://fhir.nhs.uk/STU3/CodeSystem/DCH-BloodSpotOutcomeMSUD-1"/>
						<code value="04"/>
						<display value="Condition not suspected"/>
					</coding>
				</outcome>
				<report>
					<reference value="urn:uuid:4ae3b640-a32b-4879-8c6c-3896ac19da74"/>
				</report>
			</Procedure>
		</resource>
	</entry>
	<!--Blood Spot Test GA1 Procedure-->
	<entry>
		<fullUrl value="urn:uuid:25f607d7-48ef-4b4e-a1bd-d9206b239df7"/>
		<resource>
			<Procedure>
				<id value="25f607d7-48ef-4b4e-a1bd-d9206b239df7"/>
				<meta>
					<profile value="https://fhir.nhs.uk/STU3/StructureDefinition/CareConnect-DCH-NewbornBloodSpotScreeningGA1-Procedure-1"/>
				</meta>
				<status value="completed"/>
				<code>
					<coding>
						<system value="http://snomed.info/sct"/>
						<code value="940131000000109"/>
						<display value="Blood spot glutaric aciduria type 1 screening test"/>
					</coding>
				</code>
				<subject>
					<reference value="urn:uuid:5d5845f3-398f-474b-af59-14882fc7b0ca"/>
				</subject>
				<context>
					<reference value="urn:uuid:1bcb0151-4ddf-4084-9c06-e8a31fdcf25b"/>
				</context>
				<outcome>
					<coding>
						<system value="https://fhir.nhs.uk/STU3/CodeSystem/DCH-BloodSpotOutcomeGA1-1"/>
						<code value="04"/>
						<display value="Condition not suspected"/>
					</coding>
				</outcome>
				<report>
					<reference value="urn:uuid:4ae3b640-a32b-4879-8c6c-3896ac19da74"/>
				</report>
			</Procedure>
		</resource>
	</entry>
	<!--Blood Spot Test IVA Procedure-->
	<entry>
		<fullUrl value="urn:uuid:e3c6ae24-6601-413a-b4a3-4afb5a8337e8"/>
		<resource>
			<Procedure>
				<id value="e3c6ae24-6601-413a-b4a3-4afb5a8337e8"/>
				<meta>
					<profile value="https://fhir.nhs.uk/STU3/StructureDefinition/CareConnect-DCH-NewbornBloodSpotScreeningIVA-Procedure-1"/>
				</meta>
				<status value="completed"/>
				<code>
					<coding>
						<system value="http://snomed.info/sct"/>
						<code value="940151000000102"/>
						<display value="Blood spot isovaleric acidaemia screening test"/>
					</coding>
				</code>
				<subject>
					<reference value="urn:uuid:5d5845f3-398f-474b-af59-14882fc7b0ca"/>
				</subject>
				<context>
					<reference value="urn:uuid:1bcb0151-4ddf-4084-9c06-e8a31fdcf25b"/>
				</context>
				<outcome>
					<coding>
						<system value="https://fhir.nhs.uk/STU3/CodeSystem/DCH-BloodSpotOutcomeIVA-1"/>
						<code value="04"/>
						<display value="Condition not suspected"/>
					</coding>
				</outcome>
				<report>
					<reference value="urn:uuid:4ae3b640-a32b-4879-8c6c-3896ac19da74"/>
				</report>
			</Procedure>
		</resource>
	</entry>
	<!--Blood Spot Diagnostic Report-->
	<entry>
		<fullUrl value="urn:uuid:4ae3b640-a32b-4879-8c6c-3896ac19da74"/>
		<resource>
			<DiagnosticReport>
				<id value="4ae3b640-a32b-4879-8c6c-3896ac19da74"/>
				<meta>
					<profile value="https://fhir.nhs.uk/STU3/StructureDefinition/DCH-NewbornBloodSpotScreening-DiagnosticReport-1"/>
				</meta>
				<status value="final"/>
				<code>
					<coding>
						<system value="http://snomed.info/sct"/>
						<code value="86637100000010"/>
						<display value="Child Screening Report (record artifact)"/>
					</coding>
				</code>
				<subject>
					<reference value="urn:uuid:5d5845f3-398f-474b-af59-14882fc7b0ca"/>
				</subject>
				<context>
					<reference value="urn:uuid:1bcb0151-4ddf-4084-9c06-e8a31fdcf25b"/>
				</context>
				<issued value="2017-10-02T20:12:00+00:00"/>
			</DiagnosticReport>
		</resource>
	</entry>
	<!--Blood Spot Encounter details-->
	<entry>
		<fullUrl value="urn:uuid:1bcb0151-4ddf-4084-9c06-e8a31fdcf25b"/>
		<resource>
			<Encounter>
				<id value="1bcb0151-4ddf-4084-9c06-e8a31fdcf25b"/>
				<meta>
					<profile value="https://fhir.nhs.uk/STU3/StructureDefinition/CareConnect-DCH-Encounter-1"/>
				</meta>
				<status value="finished"/>
				<subject>
					<reference value="urn:uuid:5d5845f3-398f-474b-af59-14882fc7b0ca"/>
					<display value="DAWKINS, Jack"/>
				</subject>
				<period>
					<start value="2018-01-29"/>
				</period>
				<location>
					<location>
						<reference value="urn:uuid:02692f55-56cf-4dda-8ef5-e9ec13f6bd99"/>
					</location>
				</location>
				<serviceProvider>
					<reference value="urn:uuid:5a293df7-b22f-41b6-8bf1-44248ea59edb"/>
				</serviceProvider>
			</Encounter>
		</resource>
	</entry>
	<!--Location where event took place-->
	<entry>
		<fullUrl value="urn:uuid:02692f55-56cf-4dda-8ef5-e9ec13f6bd99"/>
		<resource>
			<Location>
				<id value="02692f55-56cf-4dda-8ef5-e9ec13f6bd99"/>
				<meta>
					<profile value="https://fhir.hl7.org.uk/STU3/StructureDefinition/CareConnect-Location-1"/>
				</meta>
				<identifier>
					<system value="https://fhir.nhs.uk/Id/ods-site-code"/>
					<value value="RX3EP"/>
				</identifier>
			</Location>
		</resource>
	</entry>
</Bundle>
