<?xml version="1.0" encoding="UTF-8"?>
<!--This example message is provided for illustrative purposes only. It has had no clinical validation. Where there are conflicts with the written message specification or schema, the specification or schema shall be considered to take precedence-->
<Bundle xmlns="http://hl7.org/fhir" xmlns:xsi="http://www.w3.org/2001/XMLSchema-instance" xsi:schemaLocation="http://hl7.org/fhir file:///C:/stu3/bundle.xsd">
	<id value="a8ca980c-72aa-11e7-8cf7-a6006ad3dba0"/>
	<meta>
		<profile value="https://fhir.nhs.uk/StructureDefinition/DCH-Bundle-1"/>
	</meta>
	<type value="message"/>
<!--Message Header-->
		<entry>
		<fullUrl value="urn:uuid:9d2e2cd9-ffe1-49c7-be43-f36e30564d3f"/>
		<resource>
			<MessageHeader>
				<id value="9d2e2cd9-ffe1-49c7-be43-f36e30564d3f"/>
				<meta>
					<profile value="https://fhir.nhs.uk/STU3/StructureDefinition/DCH-MessageHeader-1"/>
				</meta>
				<extension url="https://fhir.nhs.uk/STU3/StructureDefinition/Extension-DCH-MessageEventType-1">
					<valueCodeableConcept>
						<coding>
							<system value="https://fhir.nhs.uk/STU3/CodeSystem/DCH-MessageEventType-1"/>
							<code value="new"/>
							<display value="New event message"/>
						</coding>
					</valueCodeableConcept>
				</extension>
				<event>
					<system value="https://fhir.nhs.uk/STU3/CodeSystem/DCH-ChildHealthEventType-1"/>
					<code value="CH009"/>
					<display value="Discharge Details"/>
				</event>
				<timestamp value="2017-11-01T15:00:00+00:00"/>
				<source>
					<endpoint value="urn:nhs-uk:addressing:ods:RX3EP"/>
				</source>
				<responsible>
					<reference value="urn:uuid:33a33b58-648a-4453-b981-e21ea9ebc6ea"/>
					<display value="UNIVERSITY HOSPITAL OF DURHAM "/>
				</responsible>
				<focus>
					<reference value="urn:uuid:1bcb0151-4ddf-4084-9c06-e8a31fdcf25b"/>
				</focus>
			</MessageHeader>
		</resource>
	</entry>
	
<!--Responsible org (Birth)-->
	<entry>
		<fullUrl value="urn:uuid:33a33b58-648a-4453-b981-e21ea9ebc6ea"/>
		<resource>
			<Organization>
				<id value="33a33b58-648a-4453-b981-e21ea9ebc6ea"/>
				<meta>
					<profile value="https://fhir.nhs.uk/STU3/StructureDefinition/CareConnect-Organization-1"/>
				</meta>
				<identifier>
					<system value="https://fhir.nhs.uk/Id/ods-organization-code"/>
					<value value="RX3EP"/>
				</identifier>
				<name value="UNIVERSITY HOSPITAL OF NORTH DURHAM"/>
				<address>
					<line value="NORTH ROAD"/>
					<city value="DURHAM"/>
					<district value="COUNTY DURHAM"/>
					<postalCode value="DH1 5TW"/>
				</address>
			</Organization>
		</resource>
	</entry>
	
	<!--Healthcare service used e.g GP, trust, etc..-->
	<entry>
		<fullUrl value="urn:uuid:5a293df7-b22f-41b6-8bf1-44248ea59edb"/>
		<resource>
			<HealthcareService>
				<id value="2db9a96b-393f-4817-868f-3e064296f1f9"/>
				<meta>
					<profile value="https://fhir.nhs.uk/STU3/StructureDefinition/DCH-HealthcareService-1"/>
				</meta>
				<identifier>
					<system value="urn:ietf:rfc:3986"/>
					<value value="2db9a96b-393f-4817-868f-3e064296f1f9"/>
				</identifier>
				<providedBy>
					<reference value="urn:uuid:33a33b58-648a-4453-b981-e21ea9ebc6ea"/>
					<display value="UNIVERSITY HOSPITAL OF NORTH DURHAM"/>
				</providedBy>
				<specialty>
					<coding>
						<system value="https://fhir.nhs.uk/STU3/CodeSystem/DCH-Specialty-1"/>
						<code value="560"/>
						<display value="MIDWIFE EPISODE"/>
					</coding>
				</specialty>
				<location>
					<reference value="urn:uuid:e3177167-40fc-4f1a-80f2-a2f17f18fde7"/>
				</location>
			</HealthcareService>
		</resource>
	</entry>
	
	<!--Who the patient is-->
	<entry>
		<fullUrl value="urn:uuid:7368c5fe-bbb4-4e9c-a585-234e06b84e82"/>
		<resource>
			<Patient>
				<id value="7368c5fe-bbb4-4e9c-a585-234e06b84e82"/>
				<meta>
					<profile value="https://fhir.nhs.uk/StructureDefinition/CareConnect-DCH-Patient-1"/>
				</meta>
				<identifier>
					<extension url="https://fhir.hl7.org.uk/StructureDefinition/Extension-CareConnect-NHSNumberVerificationStatus-1">
						<valueCodeableConcept>
							<coding>
								<system value="https://fhir.hl7.org.uk/CareConnect-NHSNumberVerificationStatus-1"/>
								<code value="01"/>
								<display value="Number present and verified"/>
							</coding>
						</valueCodeableConcept>
					</extension>
					<system value="https://fhir.nhs.uk/Id/nhs-number"/>
					<value value="6101231234"/>
				</identifier>
				<name>
					<use value="usual"/>
					<family value="Dawkins"/>
					<given value="Sally"/>
				</name>
				<gender value="female"/>
				<birthDate value="1980-01-07"/>
			</Patient>
		</resource>
	</entry>
	<!--Physical location of Discharge-->
	<entry>
		<fullUrl value="urn:uuid:891d6eef-9591-4f91-ae09-6a36e572cc7a"/>
		<resource>
			<Location>
				<address>
					<line value="High St"/>
					<city value="DURHAM"/>
				</address>
			</Location>
		</resource>
	</entry>
	<!--Encounter details-->
	<entry>
		<fullUrl value="urn:uuid:1bcb0151-4ddf-4084-9c06-e8a31fdcf25b"/>
		<resource>
			<Encounter>
				<id value="1bcb0151-4ddf-4084-9c06-e8a31fdcf25b"/>
				<meta>
					<profile value="https://fhir.nhs.uk/StructureDefinition/CareConnect-DCH-Encounter-1"/>
				</meta>
				<identifier>
					<system value="urn:ietf:rfc:3986"/>
					<value value="a8ca9fe6-72aa-11e7-8cf7-a6006ad3dba0"/>
				</identifier>
				<status value="finished"/>
				<type>
					<coding>
						<system value="https://fhir.nhs.uk/STU3/CodeSystem/DCH-ChildHealthEventType-1"/>
						<code value="Discharge Details"/>
						<display value="Discharge Details"/>
					</coding>
				</type>
				<subject>
					<reference value="urn:uuid:7368c5fe-bbb4-4e9c-a585-234e06b84e82"/>
					<display value="DAWKINS, Sally"/>
				</subject>
				<period>
					<start value="2018-01-29T09:00:00"/>
					<end value="2018-02-02T10:00:00"/>
				</period>
				<reason>
					<coding>
						<system value="http://snomed.info/sct"/>
						<code value="386216000"/>
						<display value="Childbirth"/>
					</coding>
				</reason>
				<hospitalization>
					<dischargeDisposition>
						<coding>
							<system value="http://hl7.org/fhir/ValueSet/encounter-discharge-disposition"/>
							<code value="home"/>
							<display value="Home"/>
						</coding>
					</dischargeDisposition>
				</hospitalization>
				<location>
					<location>
						<reference value="urn:uuid:02692f55-56cf-4dda-8ef5-e9ec13f6bd99"/>
						<display value="UNIVERSITY HOSPITAL OF NORTH DURHAM"/>
					</location>
				</location>
				<serviceProvider>
					<reference value="urn:uuid:e3177167-40fc-4f1a-80f2-a2f17f18fde7"/>
					<display value="UNIVERSITY HOSPITAL OF NORTH DURHAM"/>
				</serviceProvider>
			</Encounter>
		</resource>
	</entry>
<!--Practitioner from Encounter-->
	<entry>
		<fullUrl value="urn:uuid:4844e527-c2ec-45f5-8d98-8f87896d8164"/>
		<resource>
			<Practitioner>
				<id value="4844e527-c2ec-45f5-8d98-8f87896d8164"/>
				<meta>
					<profile value="https://fhir.hl7.org.uk/StructureDefinition/CareConnect-DCH-Practitioner-1"/>
				</meta>
				<identifier>
					<system value="https://fhir.nhs.uk/Id/sds-role-profile-id"/>
					<value value="PT2469"/>
				</identifier>
				<name>
					<family value="Bashir"/>
					<given value="Julian"/>
					<prefix value="Dr."/>
				</name>
			</Practitioner>
		</resource>
	</entry>
	
<!--Location where event took place (Maternity Site)-->
	<entry>
		<fullUrl value="urn:uuid:02692f55-56cf-4dda-8ef5-e9ec13f6bd99"/>
		<resource>
			<Location>
				<id value="02692f55-56cf-4dda-8ef5-e9ec13f6bd99"/>
				<meta>
					<profile value="https://fhir.hl7.org.uk/StructureDefinition/CareConnect-DCH-Location-1"/>
				</meta>
				<identifier>
					<system value="https://fhir.nhs.uk/Id/ods-site-code"/>
					<value value="RX3EP"/>
				</identifier>
			</Location>
		</resource>
	</entry>

</Bundle>
