<?xml version="1.0" encoding="UTF-8"?>
<!--This example message is provided for illustrative purposes only. It has had no clinical validation. Where there are conflicts with the written message specification or schema, the specification or schema shall be considered to take precedence-->
<Bundle xmlns="http://hl7.org/fhir">
	<id value="10e50517-2591-43ae-8d48-0f87c3dcc81b"/>
	<meta>
		<profile value="https://fhir.nhs.uk/STU3/StructureDefinition/DCH-Bundle-1"/>
	</meta>
	<type value="message"/>
<!--Message Header-->
		<entry>
		<fullUrl value="urn:uuid:85c8a1c5-a8a1-41c9-bb99-20956fa66218"/>
		<resource>
			<MessageHeader>
				<id value="85c8a1c5-a8a1-41c9-bb99-20956fa66218"/>
				<meta>
					<profile value="https://fhir.nhs.uk/STU3/StructureDefinition/DCH-MessageHeader-1"/>
				</meta>
				<extension url="https://fhir.nhs.uk/STU3/StructureDefinition/Extension-DCH-MessageEventType-1">
					<valueCodeableConcept>
						<coding>
							<system value="https://fhir.nhs.uk/STU3/CodeSystem/DCH-MessageEventType-1"/>
							<code value="new"/>
							<display value="New event message"/>
						</coding>
					</valueCodeableConcept>
				</extension>
				<event>
					<system value="https://fhir.nhs.uk/STU3/CodeSystem/DCH-ChildHealthEventType-1"/>
					<code value="CH014"/>
					<display value="Feeding Status"/>
				</event>
				<timestamp value="2017-11-01T15:00:00+00:00"/>
				<source>
					<endpoint value="urn:nhs-uk:addressing:ods:A83627"/>
				</source>
				<responsible>
					<reference value="urn:uuid:3ff6d789-af64-4d9c-aa1d-0087d29e9e1c"/>
					<display value="SILVERDALE FAMILY PRACTICE"/>
				</responsible>
				<focus>
					<reference value="urn:uuid:6f616c92-afad-4d11-94b6-eb1f9fbf75c1"/>
				</focus>
			</MessageHeader>
		</resource>
	</entry>
	<!--Responsible Org (MessageHeader.responsible)-->
	<entry>
		<fullUrl value="urn:uuid:3ff6d789-af64-4d9c-aa1d-0087d29e9e1c"/>
		<resource>
			<Organization>
				<id value="3ff6d789-af64-4d9c-aa1d-0087d29e9e1c"/>
				<meta>
					<profile value="https://fhir.nhs.uk/STU3/StructureDefinition/CareConnect-DCH-Organization-1"/>
				</meta>
				<identifier>
					<system value="https://fhir.nhs.uk/Id/ods-organization-code"/>
					<value value="A83627"/>
				</identifier>
				<name value="SILVERDALE FAMILY PRACTICE"/>
				<address>
					<line value="FRONT STREET"/>
					<line value="SOUTH HETTON"/>
					<city value="DURHAM"/>
					<district value="COUNTY DURHAM"/>
					<postalCode value="DH6 2TH"/>
				</address>
			</Organization>
		</resource>
	</entry>
	<!--Healthcare service used e.g GP, trust, etc..-->
	<entry>
		<fullUrl value="urn:uuid:5a293df7-b22f-41b6-8bf1-44248ea59edb"/>
		<resource>
			<HealthcareService>
				<id value="5a293df7-b22f-41b6-8bf1-44248ea59edb"/>
				<meta>
					<profile value="https://fhir.nhs.uk/STU3/StructureDefinition/EMS-HealthcareService-1"/>
				</meta>
				<identifier>
					<system value="urn:ietf:rfc:3986"/>
					<value value="2db9a96b-393f-4817-868f-3e064296f1f9"/>
				</identifier>
				<providedBy>
					<reference value="urn:uuid:3ff6d789-af64-4d9c-aa1d-0087d29e9e1c"/>
					<display value="SILVERDALE FAMILY PRACTICE"/>
				</providedBy>
				<!--***This should be a service not a professional e.g General Medical Practice not General Medical Practitioner***-->
				<type>
					<coding>
						<system value="https://fhir.nhs.uk/STU3/CodeSystem/DCH-ProfessionalType-1"/>
						<code value="N03"/>
						<display value="Health Visitor"/>
					</coding>
				</type>
				<location>
					<reference value="urn:uuid:33a33b58-648a-4453-b981-e21ea9ebc6ea"/>
				</location>
				<telecom>
				<system value="phone"/>
					<value value="0191 1231234"/>
				</telecom>
			</HealthcareService>
		</resource>
	</entry>
	
		<!--Child Details (Jack Dawkins)-->
	<entry>
		<fullUrl value="urn:uuid:5d5845f3-398f-474b-af59-14882fc7b0ca"/>
		<resource>
			<Patient>
				<id value="5d5845f3-398f-474b-af59-14882fc7b0ca"/>
				<meta>
					<profile value="https://fhir.nhs.uk/STU3/StructureDefinition/CareConnect-DCH-Patient-1"/>
				</meta>
				<extension url="http://hl7.org/fhir/StructureDefinition/birthPlace">
					<valueAddress>
						<city value="DURHAM"/>
						<district value="County Durham"/>
						<country value="UK"/>
					</valueAddress>
				</extension>
				<identifier>
						<extension url="https://fhir.nhs.uk/STU3/StructureDefinition/Extension-CareConnect-GPC-NHSNumberVerificationStatus-1">
							<valueCodeableConcept>
								<coding>
									<system value="https://fhir.nhs.uk/STU3/CareConnect-DCH-NHSNumberVerificationStatus-1"/>
									<code value="01"/>
									<display value="Number present and verified"/>
								</coding>
							</valueCodeableConcept>
						</extension>
						<system value="https://fhir.nhs.uk/Id/nhs-number"/>
						<value value="9912003888"/>
				</identifier>				
				<name>
					<use value="official"/>
					<family value="DAWKINS"/>
					<given value="Jack"/>
					<period>
						<start value="2017-10-12"/>
					</period>
				</name>
				<gender value="male"/>
				<birthDate value="2017-10-12">
					<extension url="http://hl7.org/fhir/StructureDefinition/patient-birthTime">
						<valueDateTime value="2017-10-02T12:00:00+00:00"/>
					</extension>
				</birthDate>
				<address>
					<use value="home"/>
					<line value="4 Sandmoor Drive"/>
					<city value="DURHAM"/>
					<postalCode value="DH1 2TF"/>
				</address>
			</Patient>
		</resource>
	</entry>
	
	<!--Feeding Status-->
	<entry>
		<fullUrl value="urn:uuid:7071ad47-fa74-4ec6-872a-5b0eded5f88e"/>
		<resource>
			<QuestionnaireResponse>
			<id value="7071ad47-fa74-4ec6-872a-5b0eded5f88e"/>
			<meta>
				<profile value="https://fhir.nhs.uk/STU3/StructureDefinition/DCH-FeedingStatus-QuestionnaireResponse-1"/>
			</meta>
			<identifier>
				<system value="urn:ietf:rfc:3986"/>
				<value value="1c2f0e80-1a84-4b42-906d-27628616978b"/>
			</identifier>
			<status value="completed"/>
			<subject>
				<reference value="urn:uuid:7368c5fe-bbb4-4e9c-a585-234e06b84e82"/>
			</subject>
			<context>
				<reference value="urn:uuid:6f616c92-afad-4d11-94b6-eb1f9fbf75c1"/>
			</context>
			<item>
				<linkId value="firstMilkFeed"/>
				<text value="Parental Consent"/>
				<answer>
					<valueCoding>
						<system value="http://snomed.info/sct"/>
						<code value="New code needed"/>
						<display value="Maternal Breast Milk"/>
					</valueCoding>
				</answer>
			</item>
			<item>
				<linkId value="feedingStatus"/>
				<text value="Feeding Status"/>
				<answer>
					<valueCoding>
						<system value="http://snomed.info/sct"/>
						<code value="New code needed"/>
						<display value="Exclusively breast milk feeding"/>
					</valueCoding>
				</answer>
			</item>
			<item>
				<linkId value="feedingMethod"/>
				<text value="Feeding Method"/>
				<answer>
					<valueCoding>
						<system value="http://snomed.info/sct"/>
						<code value="169741004"/>
						<display value="Breast fed"/>
					</valueCoding>
				</answer>
			</item>
			<item>
				<linkId value="introductionOfSolids"/>
				<text value="Introduction Of Solids"/>
				<answer>
					<valueDate value="2018-03-06"/>
				</answer>
			</item>
			<item>
				<linkId value="exclusiveBreastfeedingDuration"/>
				<text value="Exclusive Breast Feeding Duration"/>
				<answer>
					<valueDate value="2018-02-01"/>
				</answer>
			</item>
			<item>
				<linkId value="partialBreastfeedingDuration"/>
				<text value="Partial BreastFfeeding Duration"/>
				<answer>
					<valueDate value="2018-03-01"/>
				</answer>
			</item>
			</QuestionnaireResponse>
		</resource>
	</entry>
	<!--Encounter details-->
	<entry>
		<fullUrl value="urn:uuid:6f616c92-afad-4d11-94b6-eb1f9fbf75c1"/>
		<resource>
			<Encounter>
				<id value="6f616c92-afad-4d11-94b6-eb1f9fbf75c1"/>
				<meta>
					<profile value="https://fhir.nhs.uk/STU3/StructureDefinition/CareConnect-DCH-Encounter-1"/>
				</meta>
				<identifier>
					<system value="urn:ietf:rfc:3986"/>
					<value value="c305beee-f8b3-48b4-80d4-b539959f5c3e"/>
				</identifier>
				<status value="finished"/>
				<type>
					<coding>
						<system value="https://fhir.nhs.uk/STU3/CodeSystem/DCH-ChildHealthEventType-1"/>
						<code value="Feeding Status"/>
						<display value="Feeding Status"/>
					</coding>
				</type>
				<subject>
					<reference value="urn:uuid:7368c5fe-bbb4-4e9c-a585-234e06b84e82"/>
					<display value="DAWKINS, Jack"/>
				</subject>
				<period>
					<start value="2018-01-29T09:00:00"/>
				</period>
				<location>
					<location>
						<reference value="urn:uuid:e3177167-40fc-4f1a-80f2-a2f17f18fde7"/>
						<display value="SILVERDALE FAMILY PRACTICE"/>
					</location>
				</location>
				<serviceProvider>
					<reference value="urn:uuid:5a293df7-b22f-41b6-8bf1-44248ea59edb"/>
					<display value="SILVERDALE FAMILY PRACTICE"/>
				</serviceProvider>
			</Encounter>
		</resource>
	</entry>
	
	<!--Location where event took place-->
	<entry>
		<fullUrl value="urn:uuid:e3177167-40fc-4f1a-80f2-a2f17f18fde7"/>
		<resource>
			<Location>
				<id value="e3177167-40fc-4f1a-80f2-a2f17f18fde7"/>
				<meta>
					<profile value="https://fhir.nhs.uk/STU3/StructureDefinition/CareConnect-DCH-Location-1"/>
				</meta>
				<identifier>
					<system value="https://fhir.nhs.uk/Id/ods-site-code"/>
					<value value="A83627"/>
				</identifier>
				<name value="SILVERDALE FAMILY PRACTICE"/>
			</Location>
		</resource>
	</entry>
</Bundle>