{
  "resourceType": "Bundle",
  "id": "37c05c52-b929-43fa-83fc-f7630af95cd6",
  "meta": {
    "profile": [
      "https://fhir.nhs.uk/STU3/StructureDefinition/DCH-Bundle-1"
    ]
  },
  "type": "message",
  "entry": [
    {
      "fullUrl": "urn:uuid:9d2e2cd9-ffe1-49c7-be43-f36e30564d3f",
      "resource": {
        "resourceType": "MessageHeader",
        "meta": {
          "profile": [
            "https://fhir.nhs.uk/STU3/StructureDefinition/DCH-MessageHeader-1"
          ]
        },
        "extension": [
          {
            "url": "https://fhir.nhs.uk/STU3/StructureDefinition/Extension-DCH-MessageEventType-1",
            "valueCodeableConcept": {
              "coding": [
                {
                  "system": "https://fhir.nhs.uk/STU3/CodeSystem/DCH-MessageEventType-1",
                  "code": "new",
                  "display": "New event message"
                }
              ]
            }
          }
        ],
        "event": {
          "system": "https://fhir.nhs.uk/STU3/CodeSystem/DCH-ChildHealthEventType-1",
          "code": "CH003",
          "display": "Allergies and Adverse Reactions"
        },
        "destination": [
          {
            "endpoint": "urn:nhs:addressing:asid:477121000325"
          }
        ],
        "timestamp": "2017-11-01T15:00:00+00:00",
        "source": {
          "endpoint": "urn:nhs:addressing:asid:300000000161"
        },
        "responsible": {
          "reference": "urn:uuid:33a33b58-648a-4453-b981-e21ea9ebc6ea",
          "display": "UNIVERSITY HOSPITAL OF NORTH DURHAM"
        },
        "focus": [
          {
            "reference": "urn:uuid:1bcb0151-4ddf-4084-9c06-e8a31fdcf25b"
          }
        ]
      }
    },
    {
      "fhir_comments": [
        "Responsible for message content"
      ],
      "fullUrl": "urn:uuid:33a33b58-648a-4453-b981-e21ea9ebc6ea",
      "resource": {
        "resourceType": "Organization",
        "meta": {
          "profile": [
            "https://fhir.hl7.org.uk/STU3/StructureDefinition/CareConnect-Organization-1"
          ]
        },
        "identifier": [
          {
            "system": "https://fhir.nhs.uk/Id/ods-organization-code",
            "value": "RX3EP"
          }
        ],
        "name": "UNIVERSITY HOSPITAL OF NORTH DURHAM",
        "address": [
          {
            "line": [
              "NORTH ROAD"
            ],
            "city": "DURHAM",
            "district": "COUNTY DURHAM",
            "postalCode": "DH1 5TW"
          }
        ]
      }
    },
    {
      "fhir_comments": [
        "Healthcare service used e.g GP, trust, etc.."
      ],
      "fullUrl": "urn:uuid:aed99abc-59b8-48c3-a81e-4fa4ff6ed4ca",
      "resource": {
        "resourceType": "HealthcareService",
        "meta": {
          "profile": [
            "https://fhir.nhs.uk/STU3/StructureDefinition/DCH-HealthcareService-1"
          ]
        },
        "providedBy": {
          "reference": "urn:uuid:33a33b58-648a-4453-b981-e21ea9ebc6ea",
          "display": "UNIVERSITY HOSPITAL OF DURHAM "
        },
        "type": [
          {
            "coding": [
              {
                "system": "http://snomed.info/sct",
                "code": "708170008",
                "display": "Nursing service"
              }
            ]
          }
        ],
        "location": [
          {
            "reference": "urn:uuid:9fb9d531-84dd-421e-8f4a-a309d9ff7890"
          }
        ],
        "telecom": [
          {
            "system": "phone",
            "value": "0191 1231234"
          }
        ]
      }
    },
    {
      "fhir_comments": [
        "Child Details (Jack Dawkins)"
      ],
      "fullUrl": "urn:uuid:5d5845f3-398f-474b-af59-14882fc7b0ca",
      "resource": {
        "resourceType": "Patient",
        "meta": {
          "profile": [
            "https://fhir.nhs.uk/STU3/StructureDefinition/CareConnect-DCH-Patient-1"
          ]
        },
        "identifier": [
          {
            "extension": [
              {
                "url": "https://fhir.nhs.uk/STU3/StructureDefinition/Extension-CareConnect-NHSNumberVerificationStatus-1",
                "valueCodeableConcept": {
                  "coding": [
                    {
                      "system": "https://fhir.hl7.org.uk/STU3/CodeSystem/CareConnect-NHSNumberVerificationStatus-1",
                      "code": "01",
                      "display": "Number present and verified"
                    }
                  ]
                }
              }
            ],
            "system": "https://fhir.nhs.uk/Id/nhs-number",
            "value": "9912003888"
          }
        ],
        "name": [
          {
            "use": "official",
            "family": "DAWKINS",
            "given": [
              "Jack"
            ]
          }
        ],
        "gender": "male",
        "birthDate": "2013-10-12",
        "_birthDate": {
          "extension": [
            {
              "url": "http://hl7.org/fhir/StructureDefinition/patient-birthTime",
              "valueDateTime": "2017-10-02T12:00:00+00:00"
            }
          ]
        },
        "address": [
          {
            "use": "home",
            "line": [
              "4 Sandmoor Drive"
            ],
            "city": "DURHAM",
            "postalCode": "DH1 2TF"
          }
        ]
      }
    },
    {
      "fhir_comments": [
        "Allergy or Adverse Reaction (full set of data)"
      ],
      "fullUrl": "urn:uuid:89433cac-6226-428d-99c1-988cd8f31a18",
      "resource": {
        "resourceType": "AllergyIntolerance",
        "meta": {
          "profile": [
            "https://fhir.nhs.uk/STU3/StructureDefinition/CareConnect-DCH-AllergyIntolerance-2"
          ]
        },
        "clinicalStatus": "active",
        "verificationStatus": "confirmed",
        "type": "allergy",
        "code": {
          "coding": [
            {
              "system": "http://snomed.info/sct",
              "code": "373270004",
              "display": "Penicillin antibacterial"
            }
          ]
        },
        "patient": {
          "reference": "urn:uuid:5d5845f3-398f-474b-af59-14882fc7b0ca"
        },
        "onsetString": "In Childhood",
        "assertedDate": "2018-01-29",
        "note": [
          {
            "text": "Evidence: Reacted badly to penicillin prescription as a child\r\nComment: Prescribe alternative an antibiotic group"
          }
        ],
        "reaction": [
          {
            "manifestation": [
              {
                "coding": [
                  {
                    "system": "http://snomed.info/sct",
                    "code": "421581006",
                    "display": "Pharyngeal swelling"
                  }
                ]
              }
            ],
            "severity": "moderate"
          }
        ]
      }
    },
    {
      "fhir_comments": [
        "Allergy or Adverse Reaction (minimum data)"
      ],
      "fullUrl": "urn:uuid:fd44604e-eea1-4a9f-9b29-4606f8b5cbd5",
      "resource": {
        "resourceType": "AllergyIntolerance",
        "meta": {
          "profile": [
            "https://fhir.nhs.uk/STU3/StructureDefinition/CareConnect-DCH-AllergyIntolerance-2"
          ]
        },
        "clinicalStatus": "active",
        "verificationStatus": "confirmed",
        "code": {
          "coding": [
            {
              "system": "http://snomed.info/sct",
              "code": "29276003",
              "display": "Chlorine"
            }
          ]
        },
        "patient": {
          "reference": "urn:uuid:5d5845f3-398f-474b-af59-14882fc7b0ca"
        },
        "assertedDate": "2018-01-29"
      }
    },
    {
      "fhir_comments": [
        "Allergy or Adverse Reaction using text"
      ],
      "fullUrl": "urn:uuid:fd44604e-eea1-4a9f-9b29-4606f8b5cb89",
      "resource": {
        "resourceType": "AllergyIntolerance",
        "meta": {
          "profile": [
            "https://fhir.nhs.uk/STU3/StructureDefinition/CareConnect-DCH-AllergyIntolerance-2"
          ]
        },
        "clinicalStatus": "active",
        "verificationStatus": "confirmed",
        "type": "allergy",
        "code": {
          "text": "Panobinostat lactate"
        },
        "patient": {
          "reference": "urn:uuid:5d5845f3-398f-474b-af59-14882fc7b0ca"
        },
        "onsetString": "In Childhood",
        "assertedDate": "2018-01-29",
        "note": [
          {
            "text": "Certainty: Confirmed by test\r\nSeverity: Moderate\r\nEvidence: Reacted badly to penicillin prescription as a child\r\nComment: Prescribe alternative an antibiotic group"
          }
        ],
        "reaction": [
          {
            "manifestation": [
              {
                "text": "Pharyngeal swelling"
              }
            ]
          }
        ]
      }
    },
    {
      "fhir_comments": [
        "Encounter details"
      ],
      "fullUrl": "urn:uuid:1bcb0151-4ddf-4084-9c06-e8a31fdcf25b",
      "resource": {
        "resourceType": "Encounter",
        "meta": {
          "profile": [
            "https://fhir.nhs.uk/STU3/StructureDefinition/CareConnect-DCH-Encounter-1"
          ]
        },
        "status": "finished",
        "subject": {
          "reference": "urn:uuid:5d5845f3-398f-474b-af59-14882fc7b0ca",
          "display": "DAWKINS, Jack"
        },
        "period": {
          "start": "2018-01-29"
        },
        "location": [
          {
            "location": {
              "reference": "urn:uuid:9fb9d531-84dd-421e-8f4a-a309d9ff7890"
            }
          }
        ],
        "serviceProvider": {
          "reference": "urn:uuid:aed99abc-59b8-48c3-a81e-4fa4ff6ed4ca"
        }
      }
    },
    {
      "fhir_comments": [
        "Location where event took place"
      ],
      "fullUrl": "urn:uuid:9fb9d531-84dd-421e-8f4a-a309d9ff7890",
      "resource": {
        "resourceType": "Location",
        "meta": {
          "profile": [
            "https://fhir.hl7.org.uk/STU3/StructureDefinition/CareConnect-Location-1"
          ]
        },
        "identifier": [
          {
            "system": "https://fhir.nhs.uk/Id/ods-site-code",
            "value": "RX3EP"
          }
        ]
      }
    }
  ]
}