<?xml version="1.0" encoding="UTF-8"?>
<Bundle xmlns="http://hl7.org/fhir" xmlns:xsi="http://www.w3.org/2001/XMLSchema-instance" xsi:schemaLocation="http://hl7.org/fhir ../../SchemasSTU3/bundle.xsd">
	<id value="5fae67ac-4883-11e8-842f-0ed5f89f718b"/>
	<meta>
		<profile value="https://fhir.nhs.uk/STU3/StructureDefinition/DCH-Bundle-1"/>
	</meta>
	<type value="message"/>
	<!--Message Header-->
	<entry>
		<fullUrl value="urn:uuid:85c8a1c5-a8a1-41c9-bb99-20956fa66218"/>
		<resource>
			<MessageHeader>
				<id value="85c8a1c5-a8a1-41c9-bb99-20956fa66218"/>
				<meta>
					<profile value="https://fhir.nhs.uk/STU3/StructureDefinition/DCH-MessageHeader-1"/>
				</meta>
				<extension url="https://fhir.nhs.uk/STU3/StructureDefinition/Extension-DCH-MessageEventType-1">
					<valueCodeableConcept>
						<coding>
							<system value="https://fhir.nhs.uk/STU3/CodeSystem/DCH-MessageEventType-1"/>
							<code value="new"/>
							<display value="New event message"/>
						</coding>
					</valueCodeableConcept>
				</extension>
				<event>
					<system value="https://fhir.nhs.uk/STU3/CodeSystem/DCH-ChildHealthEventType-1"/>
					<code value="CH027"/>
					<display value="Professional Contacts"/>
				</event>
				<timestamp value="2018-11-01T15:00:00+00:00"/>
				<source>
					<endpoint value="urn:nhs-uk:addressing:ods:A83627"/>
				</source>
				<responsible>
					<reference value="urn:uuid:3ff6d789-af64-4d9c-aa1d-0087d29e9e1c"/>
					<display value="SILVERDALE FAMILY PRACTICE"/>
				</responsible>
				<focus>
					<reference value="urn:uuid:12779557-9033-4213-876f-69a670cdf35d"/>
				</focus>
			</MessageHeader>
		</resource>
	</entry>
	<!--Responsible Org (MessageHeader.responsible)-->
	<entry>
		<fullUrl value="urn:uuid:3ff6d789-af64-4d9c-aa1d-0087d29e9e1c"/>
		<resource>
			<Organization>
				<id value="3ff6d789-af64-4d9c-aa1d-0087d29e9e1c"/>
				<meta>
					<profile value="https://fhir.hl7.org.uk/STU3/StructureDefinition/CareConnect-Organization-1"/>
				</meta>
				<identifier>
					<system value="https://fhir.nhs.uk/Id/ods-organization-code"/>
					<value value="A83627"/>
				</identifier>
				<name value="SILVERDALE FAMILY PRACTICE"/>
				<address>
					<line value="FRONT STREET"/>
					<line value="SOUTH HETTON"/>
					<city value="DURHAM"/>
					<district value="COUNTY DURHAM"/>
					<postalCode value="DH6 2TH"/>
				</address>
			</Organization>
		</resource>
	</entry>
	<!--Healthcare service used e.g GP, trust, etc..-->
	<entry>
		<fullUrl value="urn:uuid:5a293df7-b22f-41b6-8bf1-44248ea59edb"/>
		<resource>
			<HealthcareService>
				<id value="5a293df7-b22f-41b6-8bf1-44248ea59edb"/>
				<meta>
					<profile value="https://fhir.nhs.uk/STU3/StructureDefinition/DCH-HealthcareService-1"/>
				</meta>
				<providedBy>
					<reference value="urn:uuid:3ff6d789-af64-4d9c-aa1d-0087d29e9e1c"/>
					<display value="SILVERDALE FAMILY PRACTICE"/>
				</providedBy>
				<type>
					<coding>
						<system value="http://snomed.info/sct"/>
						<code value="71078501000000104"/>
						<display value="Health visiting service"/>
					</coding>
				</type>
				<location>
					<reference value="urn:uuid:e3177167-40fc-4f1a-80f2-a2f17f18fde7"/>
				</location>
				<telecom>
					<system value="phone"/>
					<value value="0191 1231234"/>
				</telecom>
			</HealthcareService>
		</resource>
	</entry>
	<!--Child Details (Jack Dawkins)-->
	<entry>
		<fullUrl value="urn:uuid:5d5845f3-398f-474b-af59-14882fc7b0ca"/>
		<resource>
			<Patient>
				<id value="5d5845f3-398f-474b-af59-14882fc7b0ca"/>
				<meta>
					<profile value="https://fhir.nhs.uk/STU3/StructureDefinition/CareConnect-DCH-Patient-1"/>
				</meta>
				<identifier>
					<extension url="https://fhir.hl7.org.uk/STU3/StructureDefinition/Extension-CareConnect-NHSNumberVerificationStatus-1">
						<valueCodeableConcept>
							<coding>
								<system value="https://fhir.hl7.org.uk/STU3/CodeSystem/CareConnect-NHSNumberVerificationStatus-1"/>
								<code value="01"/>
								<display value="Number present and verified"/>
							</coding>
						</valueCodeableConcept>
					</extension>
					<system value="https://fhir.nhs.uk/Id/nhs-number"/>
					<value value="9912003888"/>
				</identifier>
				<name>
					<use value="official"/>
					<family value="DAWKINS"/>
					<given value="Jack"/>
				</name>
				<gender value="male"/>
				<birthDate value="2013-10-12">
					<extension url="http://hl7.org/fhir/StructureDefinition/patient-birthTime">
						<valueDateTime value="2017-10-02T12:00:00+00:00"/>
					</extension>
				</birthDate>
				<address>
					<use value="home"/>
					<line value="4 Sandmoor Drive"/>
					<city value="DURHAM"/>
					<postalCode value="DH1 2TF"/>
				</address>
			</Patient>
		</resource>
	</entry>
	<!--Encounter details-->
	<entry>
		<fullUrl value="urn:uuid:12779557-9033-4213-876f-69a670cdf35d"/>
		<resource>
			<Encounter>
				<id value="12779557-9033-4213-876f-69a670cdf35d"/>
				<meta>
					<profile value="https://fhir.nhs.uk/STU3/StructureDefinition/CareConnect-DCH-Encounter-1"/>
				</meta>
				<status value="finished"/>
				<type>
					<coding>
						<system value="https://fhir.nhs.uk/STU3/CodeSystem/DCH-ChildHealthEncounterType-1"/>
						<code value="0028"/>
						<display value="GP Appointment"/>
					</coding>
				</type>
				<subject>
					<reference value="urn:uuid:5d5845f3-398f-474b-af59-14882fc7b0ca"/>
					<display value="DAWKINS, Jack"/>
				</subject>
				<period>
					<start value="2018-11-01"/>
				</period>
				<location>
					<location>
						<reference value="urn:uuid:e3177167-40fc-4f1a-80f2-a2f17f18fde7"/>
						<display value="Silverdale Family Practice"/>
					</location>
				</location>
				<serviceProvider>
					<reference value="urn:uuid:5a293df7-b22f-41b6-8bf1-44248ea59edb"/>
					<display value="SILVERDALE FAMILY PRACTICE"/>
				</serviceProvider>
			</Encounter>
		</resource>
	</entry>
	<!--Pro Contact Episode of Care-->
	<entry>
		<fullUrl value="urn:uuid:5812bce1-58c4-43c0-bd17-30d5a567d87e"/>
		<resource>
			<EpisodeOfCare>
				<id value="5812bce1-58c4-43c0-bd17-30d5a567d87e"/>
				<meta>
					<profile value="https://fhir.nhs.uk/STU3/StructureDefinition/DCH-ProfessionalContact-EpisodeOfCare-1"/>
				</meta>
				<status value="active"/>
				<type>
					<coding>
						<system value="https://fhir.nhs.uk/STU3/CodeSystem/DCH-AssociationType-1"/>
						<code value="Assumed"/>
						<display value="Assumed"/>
					</coding>
				</type>
				<patient>
					<reference value="urn:uuid:5d5845f3-398f-474b-af59-14882fc7b0ca"/>
				</patient>
				<period>
					<start value="2018-11-01"/>
				</period>
				<team>
					<reference value="urn:uuid:7fc14cd0-9022-11e8-9eb6-529269fb1459"/>
				</team>
			</EpisodeOfCare>
		</resource>
	</entry>
	<!--CareTeam-->
	<entry>
		<fullUrl value="urn:uuid:7fc14cd0-9022-11e8-9eb6-529269fb1459"/>
		<resource>
			<CareTeam>
				<id value="7fc14cd0-9022-11e8-9eb6-529269fb1459"/>
				<name value="Silverdale Health Visiting Service"/>
				<subject>
					<reference value="urn:uuid:5d5845f3-398f-474b-af59-14882fc7b0ca"/>
					<display value="DAWKINS, Jack"/>
				</subject>
				<context>
					<reference value="urn:uuid:12779557-9033-4213-876f-69a670cdf35d"/>
				</context>
				<participant>
					<role>
						<coding>
							<system value="https://fhir.nhs.uk/STU3/CodeSystem/DCH-ProfessionalType-1"/>
							<code value="330"/>
							<display value="Specialist Community Public Health Nurse: Health Visitor"/>
						</coding>
					</role>
				</participant>
				<managingOrganization>
					<reference value="urn:uuid:3ff6d789-af64-4d9c-aa1d-0087d29e9e1c"/>
					<display value="SILVERDALE FAMILY PRACTICE"/>
				</managingOrganization>
			</CareTeam>
		</resource>
	</entry>
	<!--Location where event took place-->
	<entry>
		<fullUrl value="urn:uuid:e3177167-40fc-4f1a-80f2-a2f17f18fde7"/>
		<resource>
			<Location>
				<id value="e3177167-40fc-4f1a-80f2-a2f17f18fde7"/>
				<meta>
					<profile value="https://fhir.hl7.org.uk/STU3/StructureDefinition/CareConnect-Location-1"/>
				</meta>
				<identifier>
					<system value="https://fhir.nhs.uk/Id/ods-site-code"/>
					<value value="A83627"/>
				</identifier>
				<name value="Silverdale Family Practice"/>
				<managingOrganization>
					<reference value="urn:uuid:3ff6d789-af64-4d9c-aa1d-0087d29e9e1c"/>
				</managingOrganization>
			</Location>
		</resource>
	</entry>
</Bundle>
