<?xml version="1.0" encoding="UTF-8"?>
<!--This example message is provided for illustrative purposes only. It has had no clinical validation. Where there are conflicts with the written message specification or schema, the specification or schema shall be considered to take precedence-->
<!--Admission to A and E-->
<Bundle xmlns="http://hl7.org/fhir">
	<id value="97be8432-5a9a-4c71-a083-b337323b8d6d"/>
	<meta>
		<profile value="https://fhir.nhs.uk/STU3/StructureDefinition/DCH-Bundle-1"/>
	</meta>
	<type value="message"/>
	<entry>
		<fullUrl value="urn:uuid:9d2e2cd9-ffe1-49c7-be43-f36e30564d3f"/>
		<resource>
			<MessageHeader>
				<id value="9d2e2cd9-ffe1-49c7-be43-f36e30564d3f"/>
				<meta>
					<profile value="https://fhir.nhs.uk/STU3/StructureDefinition/DCH-MessageHeader-1"/>
				</meta>
				<extension url="https://fhir.nhs.uk/STU3/StructureDefinition/Extension-DCH-MessageEventType-1">
					<valueCodeableConcept>
						<coding>
							<system value="https://fhir.nhs.uk/STU3/CodeSystem/DCH-MessageEventType-1"/>
							<code value="new"/>
							<display value="New event message"/>
						</coding>
					</valueCodeableConcept>
				</extension>
				<event>
					<system value="https://fhir.nhs.uk/STU3/CodeSystem/DCH-ChildHealthEventType-1"/>
					<code value="CH018"/>
					<display value="Measurements"/>
				</event>
				<timestamp value="2017-11-01T15:00:00+00:00"/>
				<source>
					<endpoint value="urn:nhs-uk:addressing:ods:RX3EP"/>
				</source>
				<responsible>
					<reference value="urn:uuid:33a33b58-648a-4453-b981-e21ea9ebc6ea"/>
					<display value="UNIVERSITY HOSPITAL OF NORTH DURHAM"/>
				</responsible>
				<focus>
					<reference value="urn:uuid:1bcb0151-4ddf-4084-9c06-e8a31fdcf25b"/>
				</focus>
			</MessageHeader>
		</resource>
	</entry>
	<!--Responsible for message content (Birth)-->
	<entry>
		<fullUrl value="urn:uuid:33a33b58-648a-4453-b981-e21ea9ebc6ea"/>
		<resource>
			<Organization>
				<id value="33a33b58-648a-4453-b981-e21ea9ebc6ea"/>
				<meta>
					<profile value="https://fhir.nhs.uk/STU3/StructureDefinition/CareConnect-DCH-Organization-1"/>
				</meta>
				<identifier>
					<system value="https://fhir.nhs.uk/Id/ods-organization-code"/>
					<value value="RX3EP"/>
				</identifier>
				<name value="UNIVERSITY HOSPITAL OF NORTH DURHAM"/>
				<address>
					<line value="NORTH ROAD"/>
					<city value="DURHAM"/>
					<district value="COUNTY DURHAM"/>
					<postalCode value="DH1 5TW"/>
				</address>
			</Organization>
		</resource>
	</entry>
	<!--Healthcare service used e.g GP, trust, etc..-->
	<entry>
		<fullUrl value="urn:uuid:5a293df7-b22f-41b6-8bf1-44248ea59edb"/>
		<resource>
			<HealthcareService>
				<id value="5a293df7-b22f-41b6-8bf1-44248ea59edb"/>
				<meta>
					<profile value="https://fhir.nhs.uk/STU3/StructureDefinition/DCH-HealthcareService-1"/>
				</meta>
				<identifier>
					<system value="urn:ietf:rfc:3986"/>
					<value value="2db9a96b-393f-4817-868f-3e064296f1f9"/>
				</identifier>
				<providedBy>
					<reference value="urn:uuid:33a33b58-648a-4453-b981-e21ea9ebc6ea"/>
					<display value="UNIVERSITY HOSPITAL OF DURHAM"/>
				</providedBy>
				<location>
					<reference value="urn:uuid:c30f1fdd-0247-4e38-ba12-0d26c5555ea3"/>
				</location>
				<telecom>
					<system value="phone"/>
					<value value="0191 1231234"/>
				</telecom>
			</HealthcareService>
		</resource>
	</entry>
	<!--Child Details (Jack Dawkins)-->
	<entry>
		<fullUrl value="urn:uuid:5d5845f3-398f-474b-af59-14882fc7b0ca"/>
		<resource>
			<Patient>
				<id value="5d5845f3-398f-474b-af59-14882fc7b0ca"/>
				<meta>
					<profile value="https://fhir.nhs.uk/STU3/StructureDefinition/CareConnect-DCH-Patient-1"/>
				</meta>
				<identifier>
					<extension url="https://fhir.hl7.org.uk/STU3/StructureDefinition/Extension-CareConnect-NHSNumberVerificationStatus-1">
						<valueCodeableConcept>
							<coding>
								<system value="https://fhir.hl7.org.uk/STU3/CodeSystem/CareConnect-NHSNumberVerificationStatus-1"/>
								<code value="01"/>
								<display value="Number present and verified"/>
							</coding>
						</valueCodeableConcept>
					</extension>
					<system value="https://fhir.nhs.uk/Id/nhs-number"/>
					<value value="9912003888"/>
				</identifier>
				<name>
					<use value="official"/>
					<family value="DAWKINS"/>
					<given value="Jack"/>
					<period>
						<start value="2014-10-12"/>
					</period>
				</name>
				<birthDate value="2013-10-12">
					<extension url="http://hl7.org/fhir/StructureDefinition/patient-birthTime">
						<valueDateTime value="2017-10-02T12:00:00+00:00"/>
					</extension>
				</birthDate>
				<address>
					<use value="home"/>
					<line value="4 Sandmoor Drive"/>
					<city value="DURHAM"/>
					<postalCode value="DH1 2TF"/>
				</address>
			</Patient>
		</resource>
	</entry>
	<!--Measurements Birth Weight Observation-->
	<entry>
		<fullUrl value="urn:uuid:095c5818-4984-48a2-a47f-230b75c93936"/>
		<resource>
			<Observation>
				<id value="095c5818-4984-48a2-a47f-230b75c93936"/>
				<meta>
					<profile value="https://fhir.nhs.uk/STU3/StructureDefinition/CareConnect-DCH-BirthWeight-Observation-1"/>
				</meta>
				<identifier>
					<system value="urn:ietf:rfc:3986"/>
					<value value="c21b95a9-4fd9-4328-9876-a8b4102b28ee"/>
				</identifier>
				<status value="final"/>
				<code>
					<coding>
						<system value="http://snomed.info/sct"/>
						<code value="364589006"/>
						<display value="Birth weight"/>
					</coding>
				</code>
				<subject>
					<reference value="urn:uuid:7368c5fe-bbb4-4e9c-a585-234e06b84e82"/>
				</subject>
				<context>
					<reference value="urn:uuid:a3bec8bd-56af-4ca9-9eb9-889f3f9adecb"/>
				</context>
				<performer>
					<reference value="urn:uuid:1bcb0151-4ddf-4084-9c06-e8a31fdcf25b"/>
				</performer>
				<valueQuantity>
					<value value="4"/>
					<unit value="kilogram"/>
					<system value="http://unitsofmeasure.org"/>
					<code value="kg"/>
				</valueQuantity>
			</Observation>
		</resource>
	</entry>
	<!--Measurements Encounter details-->
	<entry>
		<fullUrl value="urn:uuid:a3bec8bd-56af-4ca9-9eb9-889f3f9adecb"/>
		<resource>
			<Encounter>
				<id value="a3bec8bd-56af-4ca9-9eb9-889f3f9adecb"/>
				<meta>
					<profile value="https://fhir.nhs.uk/STU3/StructureDefinition/CareConnect-DCH-Encounter-1"/>
				</meta>
				<identifier>
					<system value="urn:ietf:rfc:3986"/>
					<value value="0f9aeaeb-97e3-4939-92af-169e31aebb49"/>
				</identifier>
				<status value="finished"/>
				<type>
					<coding>
						<system value="https://fhir.nhs.uk/STU3/CodeSystem/DCH-ChildHealthEncounterType-1"/>
						<code value="003"/>
						<display value="Birth"/>
					</coding>
				</type>
				<subject>
					<reference value="urn:uuid:7368c5fe-bbb4-4e9c-a585-234e06b84e82"/>
					<display value="DAWKINS, Jack"/>
				</subject>
				<period>
					<start value="2013-10-12"/>
				</period>
				<location>
					<location>
						<reference value="urn:uuid:c30f1fdd-0247-4e38-ba12-0d26c5555ea3"/>
						<display value="UNIVERSITY HOSPITAL OF DURHAM"/>
					</location>
				</location>
				<serviceProvider>
					<reference value="urn:uuid:5a293df7-b22f-41b6-8bf1-44248ea59edb"/>
					<display value="UNIVERSITY HOSPITAL OF DURHAM"/>
				</serviceProvider>
			</Encounter>
		</resource>
	</entry>
	<!--Practitioner-->
	<entry>
		<fullUrl value="urn:uuid:1bcb0151-4ddf-4084-9c06-e8a31fdcf25b"/>
		<resource>
			<Practitioner>
				<id value="1bcb0151-4ddf-4084-9c06-e8a31fdcf25b"/>
				<meta>
					<profile value="https://fhir.nhs.uk/STU3/StructureDefinition/CareConnect-DCH-Practitioner-1"/>
				</meta>
				<identifier>
					<system value="https://fhir.nhs.uk/Id/sds-role-profile-id"/>
					<value value="PT2469"/>
				</identifier>
				<name>
					<family value="Bashir"/>
					<given value="Julian"/>
					<prefix value="Dr."/>
				</name>
			</Practitioner>
		</resource>
	</entry>
	<!--Practitioner Role-->
	<entry>
		<fullUrl value="urn:uuid:b7e3cc3a-9120-49fe-801c-2793b80ca922"/>
		<resource>
			<PractitionerRole>
				<id value="b7e3cc3a-9120-49fe-801c-2793b80ca922"/>
				<meta>
					<profile value="https://fhir.nhs.uk/STU3/StructureDefinition/CareConnect-DCH-PractitionerRole-1"/>
				</meta>
				<identifier>
					<system value="https://fhir.nhs.uk/Id/sds-role-profile-id"/>
					<value value="PT2468"/>
				</identifier>
				<practitioner>
					<reference value="urn:uuid:1bcb0151-4ddf-4084-9c06-e8a31fdcf25b"/>
				</practitioner>
				<organization>
					<reference value="urn:uuid:33a33b58-648a-4453-b981-e21ea9ebc6ea"/>
				</organization>
			</PractitionerRole>
		</resource>
	</entry>
	<!--Location where event took place-->
	<entry>
		<fullUrl value="urn:uuid:c30f1fdd-0247-4e38-ba12-0d26c5555ea3"/>
		<resource>
			<Location>
				<id value="c30f1fdd-0247-4e38-ba12-0d26c5555ea3"/>
				<meta>
					<profile value="https://fhir.nhs.uk/STU3/StructureDefinition/CareConnect-DCH-Location-1"/>
				</meta>
				<identifier>
					<system value="https://fhir.nhs.uk/Id/ods-site-code"/>
					<value value="RX3EP"/>
				</identifier>
			</Location>
		</resource>
	</entry>
</Bundle>
