{
  "resourceType": "Bundle",
  "id": "66aa4a36-4882-11e8-842f-0ed5f89f718b",
  "meta": {
    "profile": [
      "https://fhir.nhs.uk/STU3/StructureDefinition/DCH-Bundle-1"
    ]
  },
  "type": "message",
  "entry": [
    {
      "fullUrl": "urn:uuid:85c8a1c5-a8a1-41c9-bb99-20956fa66218",
      "resource": {
        "resourceType": "MessageHeader",
        "id": "85c8a1c5-a8a1-41c9-bb99-20956fa66218",
        "meta": {
          "profile": [
            "https://fhir.nhs.uk/STU3/StructureDefinition/DCH-MessageHeader-1"
          ]
        },
        "extension": [
          {
            "url": "https://fhir.nhs.uk/STU3/StructureDefinition/Extension-DCH-MessageEventType-1",
            "valueCodeableConcept": {
              "coding": [
                {
                  "system": "https://fhir.nhs.uk/STU3/CodeSystem/DCH-MessageEventType-1",
                  "code": "new",
                  "display": "New event message"
                }
              ]
            }
          }
        ],
        "event": {
          "system": "https://fhir.nhs.uk/STU3/CodeSystem/DCH-ChildHealthEventType-1",
          "code": "CH011",
          "display": "Emergency Care Attendance"
        },
        "timestamp": "2017-11-01T15:00:00+00:00",
        "source": {
          "endpoint": "urn:nhs-uk:addressing:ods:RX3EP"
        },
        "responsible": {
          "reference": "urn:uuid:33a33b58-648a-4453-b981-e21ea9ebc6ea",
          "display": "UNIVERSITY HOSPITAL OF NORTH DURHAM"
        },
        "focus": [
          {
            "reference": "urn:uuid:12779557-9033-4213-876f-69a670cdf35d"
          }
        ]
      }
    },
    {
      "fullUrl": "urn:uuid:33a33b58-648a-4453-b981-e21ea9ebc6ea",
      "resource": {
        "resourceType": "Organization",
        "id": "33a33b58-648a-4453-b981-e21ea9ebc6ea",
        "meta": {
          "profile": [
            "https://fhir.hl7.org.uk/STU3/StructureDefinition/CareConnect-Organization-1"
          ]
        },
        "identifier": [
          {
            "system": "https://fhir.nhs.uk/Id/ods-organization-code",
            "value": "RX3EP"
          }
        ],
        "name": "UNIVERSITY HOSPITAL OF NORTH DURHAM",
        "address": [
          {
            "line": [
              "NORTH ROAD"
            ],
            "city": "DURHAM",
            "district": "COUNTY DURHAM",
            "postalCode": "DH1 5TW"
          }
        ]
      }
    },
    {
      "fullUrl": "urn:uuid:5a293df7-b22f-41b6-8bf1-44248ea59edb",
      "resource": {
        "resourceType": "HealthcareService",
        "id": "5a293df7-b22f-41b6-8bf1-44248ea59edb",
        "meta": {
          "profile": [
            "https://fhir.nhs.uk/STU3/StructureDefinition/DCH-HealthcareService-1"
          ]
        },
        "providedBy": {
          "reference": "urn:uuid:33a33b58-648a-4453-b981-e21ea9ebc6ea",
          "display": "UNIVERSITY HOSPITAL OF NORTH DURHAM"
        },
        "type": [
          {
            "coding": [
              {
                "system": "http://snomed.info/sct",
                "code": "310000008",
                "display": "Accident and Emergency service"
              }
            ]
          }
        ],
        "location": [
          {
            "reference": "urn:uuid:e3177167-40fc-4f1a-80f2-a2f17f18fde7"
          }
        ],
        "telecom": [
          {
            "system": "phone",
            "value": "0191 1231234"
          }
        ]
      }
    },
    {
      "fullUrl": "urn:uuid:5d5845f3-398f-474b-af59-14882fc7b0ca",
      "resource": {
        "resourceType": "Patient",
        "id": "5d5845f3-398f-474b-af59-14882fc7b0ca",
        "meta": {
          "profile": [
            "https://fhir.nhs.uk/STU3/StructureDefinition/CareConnect-DCH-Patient-1"
          ]
        },
        "identifier": [
          {
            "extension": [
              {
                "url": "https://fhir.hl7.org.uk/STU3/StructureDefinition/Extension-CareConnect-NHSNumberVerificationStatus-1",
                "valueCodeableConcept": {
                  "coding": [
                    {
                      "system": "https://fhir.hl7.org.uk/STU3/CodeSystem/CareConnect-NHSNumberVerificationStatus-1",
                      "code": "01",
                      "display": "Number present and verified"
                    }
                  ]
                }
              }
            ],
            "system": "https://fhir.nhs.uk/Id/nhs-number",
            "value": "9912003888"
          }
        ],
        "name": [
          {
            "use": "official",
            "family": "DAWKINS",
            "given": [
              "Jack"
            ]
          }
        ],
        "gender": "male",
        "birthDate": "2013-10-12",
        "_birthDate": {
          "extension": [
            {
              "url": "http://hl7.org/fhir/StructureDefinition/patient-birthTime",
              "valueDateTime": "2017-10-02T12:00:00+00:00"
            }
          ]
        },
        "address": [
          {
            "use": "home",
            "line": [
              "4 Sandmoor Drive"
            ],
            "city": "DURHAM",
            "postalCode": "DH1 2TF"
          }
        ]
      }
    },
    {
      "fullUrl": "urn:uuid:1221e99b-7099-4313-b808-ec8a02687710",
      "resource": {
        "resourceType": "Procedure",
        "meta": {
          "profile": [
            "https://fhir.nhs.uk/STU3/StructureDefinition/CareConnect-DCH-EmergencyCare-Procedure-1"
          ]
        },
        "status": "completed",
        "code": {
          "coding": [
            {
              "system": "http://snomed.info/sct",
              "code": "29893006",
              "display": "Peak expiratory flow measurement"
            }
          ]
        },
        "subject": {
          "reference": "urn:uuid:5d5845f3-398f-474b-af59-14882fc7b0ca"
        },
        "context": {
          "reference": "urn:uuid:12779557-9033-4213-876f-69a670cdf35d"
        }
      }
    },
    {
      "fullUrl": "urn:uuid:12779557-9033-4213-876f-69a670cdf35d",
      "resource": {
        "resourceType": "Encounter",
        "id": "12779557-9033-4213-876f-69a670cdf35d",
        "meta": {
          "profile": [
            "https://fhir.nhs.uk/STU3/StructureDefinition/CareConnect-DCH-Emergency-Encounter-1"
          ]
        },
        "extension": [
          {
            "url": "https://fhir.nhs.uk/STU3/StructureDefinition/Extension-CareConnect-DCH-EmergencyCareDischargeStatus-1",
            "valueCodeableConcept": {
              "coding": [
                {
                  "system": "http://snomed.info/sct",
                  "code": "1066311000000101",
                  "display": "Left care setting after initial assessment"
                }
              ]
            }
          }
        ],
        "status": "finished",
        "subject": {
          "reference": "urn:uuid:5d5845f3-398f-474b-af59-14882fc7b0ca",
          "display": "DAWKINS, Jack"
        },
        "period": {
          "start": "2018-03-23",
          "end": "2018-03-23"
        },
        "reason": [
          {
            "coding": [
              {
                "system": "http://snomed.info/sct",
                "code": "50043002",
                "display": "Disorder of respiratory system"
              }
            ]
          }
        ],
        "hospitalization": {
          "dischargeDisposition": {
            "coding": [
              {
                "system": "http://snomed.info/sct",
                "code": "306689006",
                "display": "Discharge to home (procedure)"
              }
            ]
          }
        },
        "location": [
          {
            "location": {
              "reference": "urn:uuid:e3177167-40fc-4f1a-80f2-a2f17f18fde7",
              "display": "ACCIDENT & EMERGENCY LGI"
            }
          }
        ],
        "serviceProvider": {
          "reference": "urn:uuid:5a293df7-b22f-41b6-8bf1-44248ea59edb",
          "display": "UNIVERSITY HOSPITAL OF NORTH DURHAM"
        }
      }
    },
    {
      "resource": {
        "resourceType": "RelatedPerson",
        "id": "d73b0bd6-375b-4167-aea6-b63c97f08ecc",
        "meta": {
          "profile": [
            "https://fhir.nhs.uk/STU3/StructureDefinition/DCH-RelatedPerson-1"
          ]
        },
        "identifier": [
          {
            "system": "https://fhir.nhs.uk/Id/sds-role-profile-id",
            "value": "PT2468"
          }
        ],
        "patient": {
          "reference": "urn:uuid:5d5845f3-398f-474b-af59-14882fc7b0ca"
        },
        "relationship": {
          "coding": [
            {
              "system": "http://hl7.org/fhir/v3/RoleCode",
              "code": "MTH",
              "display": "mother"
            }
          ]
        },
        "name": [
          {
            "family": "Dawkins",
            "given": [
              "Sally"
            ]
          }
        ],
        "birthDate": "1973-12-12"
      }
    },
    {
      "fullUrl": "urn:uuid:e3177167-40fc-4f1a-80f2-a2f17f18fde7",
      "resource": {
        "resourceType": "Location",
        "id": "e3177167-40fc-4f1a-80f2-a2f17f18fde7",
        "meta": {
          "profile": [
            "https://fhir.hl7.org.uk/STU3/StructureDefinition/CareConnect-Location-1"
          ]
        },
        "identifier": [
          {
            "system": "https://fhir.nhs.uk/Id/ods-site-code",
            "value": "RX3EP"
          }
        ],
        "name": "UNIVERSITY HOSPITAL OF NORTH DURHAM"
      }
    }
  ]
}