<Bundle xmlns="http://hl7.org/fhir" xmlns:xsi="http://www.w3.org/2001/XMLSchema-instance" xsi:schemaLocation="http://hl7.org/fhir ../../Schemas/bundle.xsd">
 <id value="f7e0d885-f6ca-4a9b-b3ed-52d900d608e5"/>
 <meta>
  <profile value="https://fhir.nhs.uk/STU3/StructureDefinition/DCH-Bundle-1"/>
 </meta>
 <type value="message"/>
 <entry>
  <fullUrl value="urn:uuid:85c8a1c5-a8a1-41c9-bb99-20956fa66218"/>
  <resource>
   <MessageHeader>
    <id value="85c8a1c5-a8a1-41c9-bb99-20956fa66218"/>
    <meta>
     <profile value="https://fhir.nhs.uk/STU3/StructureDefinition/DCH-MessageHeader-1"/>
    </meta>
    <extension url="https://fhir.nhs.uk/STU3/StructureDefinition/Extension-DCH-MessageEventType-1">
     <valueCodeableConcept>
      <coding>
       <system value="https://fhir.nhs.uk/STU3/CodeSystem/DCH-MessageEventType-1"/>
       <code value="new"/>
       <display value="New event message"/>
      </coding>
     </valueCodeableConcept>
    </extension>
    <event>
     <system value="https://fhir.nhs.uk/STU3/CodeSystem/DCH-ChildHealthEventType-1"/>
     <code value="CH017"/>
     <display value="Information and Advice Given"/>
    </event>
    <timestamp value="2017-11-01T15:00:00+00:00"/>
    <source>
     <endpoint value="urn:nhs-uk:addressing:ods:A83627"/>
    </source>
    <responsible>
     <reference value="urn:uuid:3ff6d789-af64-4d9c-aa1d-0087d29e9e1c"/>
     <display value="SILVERDALE FAMILY PRACTICE"/>
    </responsible>
    <focus>
     <reference value="urn:uuid:12779557-9033-4213-876f-69a670cdf35d"/>
    </focus>
   </MessageHeader>
  </resource>
 </entry>
 <!--Responsible Org (MessageHeader.responsible)-->
 <entry>
  <fullUrl value="urn:uuid:3ff6d789-af64-4d9c-aa1d-0087d29e9e1c"/>
  <resource>
   <Organization>
    <id value="3ff6d789-af64-4d9c-aa1d-0087d29e9e1c"/>
    <meta>
     <profile value="https://fhir.hl7.org.uk/STU3/StructureDefinition/CareConnect-Organization-1"/>
    </meta>
    <identifier>
     <system value="https://fhir.nhs.uk/Id/ods-organization-code"/>
     <value value="A83627"/>
    </identifier>
    <name value="SILVERDALE FAMILY PRACTICE"/>
    <address>
     <line value="FRONT STREET"/>
     <line value="SOUTH HETTON"/>
     <city value="DURHAM"/>
     <district value="COUNTY DURHAM"/>
     <postalCode value="DH6 2TH"/>
    </address>
   </Organization>
  </resource>
 </entry>
 <!--Healthcare service used e.g GP, trust, etc..-->
 <entry>
  <fullUrl value="urn:uuid:5a293df7-b22f-41b6-8bf1-44248ea59edb"/>
  <resource>
   <HealthcareService>
    <id value="5a293df7-b22f-41b6-8bf1-44248ea59edb"/>
    <meta>
     <profile value="https://fhir.nhs.uk/STU3/StructureDefinition/DCH-HealthcareService-1"/>
    </meta>
    <providedBy>
     <reference value="urn:uuid:3ff6d789-af64-4d9c-aa1d-0087d29e9e1c"/>
     <display value="SILVERDALE FAMILY PRACTICE"/>
    </providedBy>
    <type>
     <coding>
      <system value="http://snomed.info/sct"/>
      <code value="71078501000000104"/>
      <display value="Health visiting service"/>
     </coding>
    </type>
    <location>
     <reference value="urn:uuid:10bfa062-e528-4eca-9b42-2c0e1eca67e5"/>
    </location>
    <telecom>
     <system value="phone"/>
     <value value="0191 1231234"/>
    </telecom>
   </HealthcareService>
  </resource>
 </entry>
 <!--Patient-->
 <entry>
  <fullUrl value="urn:uuid:5d5845f3-398f-474b-af59-14882fc7b0ca"/>
  <resource>
   <Patient>
    <id value="5d5845f3-398f-474b-af59-14882fc7b0ca"/>
    <meta>
     <profile value="https://fhir.nhs.uk/STU3/StructureDefinition/CareConnect-DCH-Patient-1"/>
    </meta>
    <identifier>
     <extension url="https://fhir.hl7.org.uk/STU3/StructureDefinition/Extension-CareConnect-NHSNumberVerificationStatus-1">
      <valueCodeableConcept>
       <coding>
        <system value="https://fhir.hl7.org.uk/STU3/CodeSystem/CareConnect-NHSNumberVerificationStatus-1"/>
        <code value="01"/>
        <display value="Number present and verified"/>
       </coding>
      </valueCodeableConcept>
     </extension>
     <system value="https://fhir.nhs.uk/Id/nhs-number"/>
     <value value="9912003888"/>
    </identifier>
    <name>
     <use value="official"/>
     <family value="DAWKINS"/>
     <given value="Jack"/>
    </name>
    <gender value="male"/>
    <birthDate value="2013-10-12">
     <extension url="http://hl7.org/fhir/StructureDefinition/patient-birthTime">
      <valueDateTime value="2017-10-02T12:00:00+00:00"/>
     </extension>
    </birthDate>
    <address>
     <use value="home"/>
     <line value="4 Sandmoor Drive"/>
     <city value="DURHAM"/>
     <postalCode value="DH1 2TF"/>
    </address>
   </Patient>
  </resource>
 </entry>
 <!--Encounter details-->
 <entry>
  <fullUrl value="urn:uuid:12779557-9033-4213-876f-69a670cdf35d"/>
  <resource>
   <Encounter>
    <id value="12779557-9033-4213-876f-69a670cdf35d"/>
    <meta>
     <profile value="https://fhir.nhs.uk/STU3/StructureDefinition/CareConnect-DCH-Encounter-1"/>
    </meta>
    <status value="finished"/>
    <subject>
     <reference value="urn:uuid:5d5845f3-398f-474b-af59-14882fc7b0ca"/>
     <display value="DAWKINS, Jack"/>
    </subject>
    <period>
     <start value="2018-01-29"/>
    </period>
    <location>
     <location>
      <reference value="urn:uuid:10bfa062-e528-4eca-9b42-2c0e1eca67e5"/>
      <display value="SILVERDALE FAMILY PRACTICE"/>
     </location>
    </location>
    <serviceProvider>
     <reference value="urn:uuid:3ff6d789-af64-4d9c-aa1d-0087d29e9e1c"/>
     <display value="SILVERDALE FAMILY PRACTICE"/>
    </serviceProvider>
   </Encounter>
  </resource>
 </entry>
 <!--Information and Advice Given-->
 <entry>
  <fullUrl value="urn:uuid:43d91e33-aa61-4e7a-95fe-ceba85b88b25"/>
  <resource>
   <Communication>
    <id value="43d91e33-aa61-4e7a-95fe-ceba85b88b25"/>
    <meta>
     <profile value="https://fhir.nhs.uk/STU3/StructureDefinition/DCH-InformationAndAdviceGiven-Communication-1"/>
    </meta>
    <status value="completed"/>
    <subject>
     <reference value="urn:uuid:5d5845f3-398f-474b-af59-14882fc7b0ca"/>
    </subject>
    <context>
     <reference value="urn:uuid:12779557-9033-4213-876f-69a670cdf35d"/>
    </context>
    <sent value="2018-02-20"/>
    <!--The sender is CareConnect-DCH-Practitioner-1-->
    <sender>
     <reference value="urn:uuid:e69000ea-eab4-4528-8864-d962ae330325"/>
    </sender>
    <reasonCode>
     <coding>
      <system value="http://snomed.info/sct"/>
      <code value="769461000000102"/>
      <display value="Advice given about wound care"/>
     </coding>
    </reasonCode>
    <payload>
     <!--An example of free text is illustrated below, but has been commented out to show how a URL can also be used to provide advice.-->
     <!--	<contentString value="Patient advised to visit GP Nurse to have bandages changed."/>-->
     <contentAttachment>
      <url value="https://www.nhs.uk/common-health-questions/accidents-first-aid-and-treatments/how-should-i-care-for-my-stitches/"/>
     </contentAttachment>
    </payload>
   </Communication>
  </resource>
 </entry>
 <!--Practitioner-->
 <entry>
  <fullUrl value="urn:uuid:e69000ea-eab4-4528-8864-d962ae330325"/>
  <resource>
   <Practitioner>
    <id value="e69000ea-eab4-4528-8864-d962ae330325"/>
    <meta>
     <profile value="https://fhir.nhs.uk/STU3/StructureDefinition/CareConnect-DCH-Practitioner-1"/>
    </meta>
    <identifier>
     <system value="https://fhir.nhs.uk/Id/sds-role-profile-id"/>
     <value value="PT2468"/>
    </identifier>
    <name>
     <family value="Strange"/>
     <given value="Stephen"/>
     <prefix value="Dr."/>
    </name>
   </Practitioner>
  </resource>
 </entry>
 <!--Practitioner Role-->
 <entry>
  <fullUrl value="urn:uuid:b7e3cc3a-9120-49fe-801c-2793b80ca922"/>
  <resource>
   <PractitionerRole>
    <id value="b7e3cc3a-9120-49fe-801c-2793b80ca922"/>
    <meta>
     <profile value="https://fhir.nhs.uk/STU3/StructureDefinition/CareConnect-DCH-PractitionerRole-1"/>
    </meta>
    <identifier>
     <system value="https://fhir.nhs.uk/Id/sds-role-profile-id"/>
     <value value="PT2468"/>
    </identifier>
    <practitioner>
     <reference value="urn:uuid:e69000ea-eab4-4528-8864-d962ae330325"/>
    </practitioner>
    <organization>
     <reference value="urn:uuid:3ff6d789-af64-4d9c-aa1d-0087d29e9e1c"/>
    </organization>
   </PractitionerRole>
  </resource>
 </entry>
 <!--Location where event took place-->
 <entry>
  <fullUrl value="urn:uuid:10bfa062-e528-4eca-9b42-2c0e1eca67e5"/>
  <resource>
   <Location>
    <id value="10bfa062-e528-4eca-9b42-2c0e1eca67e5"/>
    <meta>
     <profile value="https://fhir.hl7.org.uk/STU3/StructureDefinition/CareConnect-Location-1"/>
    </meta>
    <identifier>
     <system value="https://fhir.nhs.uk/Id/ods-site-code"/>
     <value value="A83627001"/>
    </identifier>
    <name value="SILVERDALE FAMILY PRACTICE"/>
   </Location>
  </resource>
 </entry>
</Bundle>
