<?xml version="1.0" encoding="UTF-8"?>
<Bundle xmlns="http://hl7.org/fhir">
	<id value="4a691c2c-f6d0-4fd6-90ff-51644333e121"/>
	<meta>
		<profile value="https://fhir.nhs.uk/STU3/StructureDefinition/DCH-Bundle-1"/>
	</meta>
	<type value="message"/>
	<!--Message Header-->
	<entry>
		<fullUrl value="urn:uuid:85c8a1c5-a8a1-41c9-bb99-20956fa66218"/>
		<resource>
			<MessageHeader>
				<id value="85c8a1c5-a8a1-41c9-bb99-20956fa66218"/>
				<meta>
					<profile value="https://fhir.nhs.uk/STU3/StructureDefinition/DCH-MessageHeader-1"/>
				</meta>
				<extension url="https://fhir.nhs.uk/STU3/StructureDefinition/Extension-DCH-MessageEventType-1">
					<valueCodeableConcept>
						<coding>
							<system value="https://fhir.nhs.uk/STU3/CodeSystem/DCH-MessageEventType-1"/>
							<code value="new"/>
							<display value="New event message"/>
						</coding>
					</valueCodeableConcept>
				</extension>
				<event>
					<system value="https://fhir.nhs.uk/STU3/CodeSystem/DCH-ChildHealthEventType-1"/>
					<code value="CH008"/>
					<display value="Conditions / Diagnoses"/>
				</event>
				<destination>
					<endpoint value="477121000325"/>
				</destination>	
				<timestamp value="2017-11-01T15:00:00+00:00"/>
				<source>
					<endpoint value="300000000161"/>
				</source>
				<responsible>
					<reference value="urn:uuid:33a33b58-648a-4453-b981-e21ea9ebc6ea"/>
					<display value="UNIVERSITY HOSPITAL OF NORTH DURHAM"/>
				</responsible>
				<focus>
					<reference value="urn:uuid:12779557-9033-4213-876f-69a670cdf35d"/>
				</focus>
			</MessageHeader>
		</resource>
	</entry>
	<!--Responsible for message content-->
	<entry>
		<fullUrl value="urn:uuid:33a33b58-648a-4453-b981-e21ea9ebc6ea"/>
		<resource>
			<Organization>
				<id value="33a33b58-648a-4453-b981-e21ea9ebc6ea"/>
				<meta>
					<profile value="https://fhir.hl7.org.uk/STU3/StructureDefinition/CareConnect-Organization-1"/>
				</meta>
				<identifier>
					<system value="https://fhir.nhs.uk/Id/ods-organization-code"/>
					<value value="RX3EP"/>
				</identifier>
				<name value="UNIVERSITY HOSPITAL OF NORTH DURHAM"/>
				<address>
					<line value="NORTH ROAD"/>
					<city value="DURHAM"/>
					<district value="COUNTY DURHAM"/>
					<postalCode value="DH1 5TW"/>
				</address>
			</Organization>
		</resource>
	</entry>
	<!--Healthcare service used e.g GP, trust, etc..-->
	<entry>
		<fullUrl value="urn:uuid:5a293df7-b22f-41b6-8bf1-44248ea59edb"/>
		<resource>
			<HealthcareService>
				<id value="5a293df7-b22f-41b6-8bf1-44248ea59edb"/>
				<meta>
					<profile value="https://fhir.nhs.uk/STU3/StructureDefinition/DCH-HealthcareService-1"/>
				</meta>
				<identifier>
					<system value="https://tools.ietf.org/html/rfc4122"/>
					<value value="2db9a96b-393f-4817-868f-3e064296f1f9"/>
				</identifier>
				<providedBy>
					<reference value="urn:uuid:33a33b58-648a-4453-b981-e21ea9ebc6ea"/>
					<display value="UNIVERSITY HOSPITAL OF DURHAM "/>
				</providedBy>
				<type>
					<coding>
						<system value="http://snomed.info/sct"/>
						<code value="708170008"/>
						<display value="Nursing service"/>
					</coding>
				</type>
				<location>
					<reference value="urn:uuid:e3177167-40fc-4f1a-80f2-a2f17f18fde7"/>
				</location>
				<telecom>
					<system value="phone"/>
					<value value="0191 1231234"/>
				</telecom>
			</HealthcareService>
		</resource>
	</entry>
	<!--Child Details (Jack Dawkins)-->
	<entry>
		<fullUrl value="urn:uuid:5d5845f3-398f-474b-af59-14882fc7b0ca"/>
		<resource>
			<Patient>
				<id value="5d5845f3-398f-474b-af59-14882fc7b0ca"/>
				<meta>
					<profile value="https://fhir.nhs.uk/STU3/StructureDefinition/CareConnect-DCH-Patient-1"/>
				</meta>
				<identifier>
					<extension url="https://fhir.hl7.org.uk/STU3/StructureDefinition/Extension-CareConnect-NHSNumberVerificationStatus-1">
						<valueCodeableConcept>
							<coding>
								<system value="https://fhir.hl7.org.uk/STU3/CodeSystem/CareConnect-NHSNumberVerificationStatus-1"/>
								<code value="01"/>
								<display value="Number present and verified"/>
							</coding>
						</valueCodeableConcept>
					</extension>
					<system value="https://fhir.nhs.uk/Id/nhs-number"/>
					<value value="9912003888"/>
				</identifier>
				<name>
					<use value="official"/>
					<family value="DAWKINS"/>
					<given value="Jack"/>
				</name>
				<gender value="male"/>
				<birthDate value="2013-10-12">
					<extension url="http://hl7.org/fhir/StructureDefinition/patient-birthTime">
						<valueDateTime value="2017-10-02T12:00:00+00:00"/>
					</extension>
				</birthDate>
				<address>
					<use value="home"/>
					<line value="4 Sandmoor Drive"/>
					<city value="DURHAM"/>
					<postalCode value="DH1 2TF"/>
				</address>
			</Patient>
		</resource>
	</entry>
	<!--Encounter details-->
	<entry>
		<fullUrl value="urn:uuid:12779557-9033-4213-876f-69a670cdf35d"/>
		<resource>
			<Encounter>
				<id value="12779557-9033-4213-876f-69a670cdf35d"/>
				<meta>
					<profile value="https://fhir.nhs.uk/STU3/StructureDefinition/CareConnect-DCH-Encounter-1"/>
				</meta>
				<identifier>
					<system value="https://tools.ietf.org/html/rfc4122"/>
					<value value="94ef4041-42f0-4e7a-946e-18e908d43404"/>
				</identifier>
				<status value="finished"/>
				<subject>
					<reference value="urn:uuid:5d5845f3-398f-474b-af59-14882fc7b0ca"/>
					<display value="DAWKINS, Jack"/>
				</subject>
				<period>
					<start value="2018-01-29"/>
				</period>
				<location>
					<location>
						<reference value="urn:uuid:e3177167-40fc-4f1a-80f2-a2f17f18fde7"/>
						<display value="UNIVERSITY HOSPITAL OF NORTH DURHAM"/>
					</location>
				</location>
				<serviceProvider>
					<reference value="urn:uuid:5a293df7-b22f-41b6-8bf1-44248ea59edb"/>
					<display value="UNIVERSITY HOSPITAL OF NORTH DURHAM"/>
				</serviceProvider>
			</Encounter>
		</resource>
	</entry>
	<!--Condition/Diagnoses-->
	<entry>
		<fullUrl value="urn:uuid:f74658b4-f667-4385-9b6f-7c4305b4f743"/>
		<resource>
			<Condition>
				<id value="f74658b4-f667-4385-9b6f-7c4305b4f743"/>
				<meta>
					<profile value="https://fhir.nhs.uk/STU3/StructureDefinition/CareConnect-DCH-Diagnosis-Condition-1"/>
				</meta>
				<category>
					<coding>
						<system value="https://fhir.hl7.org.uk/STU3/CodeSystem/CareConnect-ConditionCategory-1"/>
						<code value="diagnosis"/>
						<display value="Diagnosis"/>
					</coding>
				</category>
				<code>
					<coding>
						<system value="http://snomed.info/sct"/>
						<code value="195967001"/>
						<display value="Asthma (disorder)"/>
					</coding>
				</code>
				<subject>
					<reference value="urn:uuid:5d5845f3-398f-474b-af59-14882fc7b0ca"/>
				</subject>
				<context>
					<reference value="urn:uuid:12779557-9033-4213-876f-69a670cdf35d"/>
				</context>
			</Condition>
		</resource>
	</entry>
	<!--Condition/Diagnoses. Needs review due to problem codes not being suitable.-->
	<entry>
		<fullUrl value="urn:uuid:8af239ca-80bf-43c4-9b12-4d309a6cfb6c"/>
		<resource>
			<Condition>
				<id value="8af239ca-80bf-43c4-9b12-4d309a6cfb6c"/>
				<meta>
					<profile value="https://fhir.nhs.uk/STU3/StructureDefinition/CareConnect-DCH-Diagnosis-Condition-1"/>
				</meta>
				<category>
					<coding>
						<system value="https://fhir.hl7.org.uk/STU3/CodeSystem/CareConnect-ConditionCategory-1"/>
						<code value="diagnosis"/>
						<display value="Diagnosis"/>
					</coding>
				</category>
				<code>
					<coding>
						<system value="http://snomed.info/sct"/>
						<code value="413350009"/>
						<display value="Finding with explicit context (situation)"/>
					</coding>
				</code>
				<subject>
					<reference value="urn:uuid:5d5845f3-398f-474b-af59-14882fc7b0ca"/>
				</subject>
				<context>
					<reference value="urn:uuid:12779557-9033-4213-876f-69a670cdf35d"/>
				</context>
			</Condition>
		</resource>
	</entry>
	<!--Location where event took place-->
	<entry>
		<fullUrl value="urn:uuid:e3177167-40fc-4f1a-80f2-a2f17f18fde7"/>
		<resource>
			<Location>
				<id value="e3177167-40fc-4f1a-80f2-a2f17f18fde7"/>
				<meta>
					<profile value="https://fhir.hl7.org.uk/STU3/StructureDefinition/CareConnect-Location-1"/>
				</meta>
				<identifier>
					<system value="https://fhir.nhs.uk/Id/ods-site-code"/>
					<value value="RX3EP"/>
				</identifier>
				<name value="UNIVERSITY HOSPITAL OF NORTH DURHAM"/>
			</Location>
		</resource>
	</entry>
</Bundle>
