<?xml version="1.0" encoding="UTF-8"?>
<Bundle xmlns="http://hl7.org/fhir">
	<id value="406807af-ccd7-46ff-a257-05fae64b216e"/>
	<meta>
		<profile value="https://fhir.nhs.uk/STU3/StructureDefinition/DCH-Bundle-1"/>
	</meta>
	<type value="message"/>
	<entry>
		<fullUrl value="urn:uuid:85c8a1c5-a8a1-41c9-bb99-20956fa66218"/>
		<resource>
			<MessageHeader>
				<id value="85c8a1c5-a8a1-41c9-bb99-20956fa66218"/>
				<meta>
					<profile value="https://fhir.nhs.uk/STU3/StructureDefinition/DCH-MessageHeader-1"/>
				</meta>
				<extension url="https://fhir.nhs.uk/STU3/StructureDefinition/Extension-DCH-MessageEventType-1">
					<valueCodeableConcept>
						<coding>
							<system value="https://fhir.nhs.uk/STU3/CodeSystem/DCH-MessageEventType-1"/>
							<code value="new"/>
							<display value="New event message"/>
						</coding>
					</valueCodeableConcept>
				</extension>
				<event>
					<system value="https://fhir.nhs.uk/STU3/CodeSystem/DCH-ChildHealthEventType-1"/>
					<code value="CH033"/>
					<display value="Legal Information"/>
				</event>
				<destination>
					<endpoint value="urn:nhs:addressing:asid:477121000325"/>
				</destination>
				<timestamp value="2017-11-01T15:00:00+00:00"/>
				<source>
					<endpoint value="urn:nhs:addressing:asid:300000000161"/>
				</source>
				<responsible>
					<reference value="urn:uuid:48833cb6-a2d5-4364-9b08-7d2ef6dacffb"/>
					<display value="DURHAM SOCIAL SERVICES"/>
				</responsible>
				<focus>
					<reference value="urn:uuid:12779557-9033-4213-876f-69a670cdf35d"/>
				</focus>
			</MessageHeader>
		</resource>
	</entry>
	<!--Responsible org-->
	<entry>
		<fullUrl value="urn:uuid:48833cb6-a2d5-4364-9b08-7d2ef6dacffb"/>
		<resource>
			<Organization>
				<id value="48833cb6-a2d5-4364-9b08-7d2ef6dacffb"/>
				<meta>
					<profile value="https://fhir.hl7.org.uk/STU3/StructureDefinition/CareConnect-Organization-1"/>
				</meta>
				<identifier>
					<system value="https://fhir.nhs.uk/Id/ods-organization-code"/>
					<value value="RX3QJ"/>
				</identifier>
				<name value="DURHAM SOCIAL SERVICES"/>
				<address>
					<line value="PRIORY HOUSE"/>
					<line value="ABBEY ROAD"/>
					<city value="PITY ME"/>
					<district value="COUNTY DURHAM"/>
					<postalCode value="DH1 5RR"/>
				</address>
			</Organization>
		</resource>
	</entry>
	<!--Healthcare service used e.g GP, trust, etc..-->
	<entry>
		<fullUrl value="urn:uuid:5a293df7-b22f-41b6-8bf1-44248ea59edb"/>
		<resource>
			<HealthcareService>
				<id value="5a293df7-b22f-41b6-8bf1-44248ea59edb"/>
				<meta>
					<profile value="https://fhir.nhs.uk/STU3/StructureDefinition/DCH-HealthcareService-1"/>
				</meta>
				<providedBy>
					<reference value="urn:uuid:48833cb6-a2d5-4364-9b08-7d2ef6dacffb"/>
					<display value="DURHAM SOCIAL SERVICES"/>
				</providedBy>
				<type>
					<coding>
						<system value="http://snomed.info/sct"/>
						<code value="1060971000000108"/>
						<display value="General practice service"/>
					</coding>
				</type>
				<location>
					<reference value="urn:uuid:813470e9-89e6-418b-a83e-a73f74ade903"/>
				</location>
				<telecom>
					<system value="phone"/>
					<value value="0191 1231234"/>
				</telecom>
			</HealthcareService>
		</resource>
	</entry>
	<!--Child Details (Jack Dawkins)-->
	<entry>
		<fullUrl value="urn:uuid:5d5845f3-398f-474b-af59-14882fc7b0ca"/>
		<resource>
			<Patient>
				<id value="5d5845f3-398f-474b-af59-14882fc7b0ca"/>
				<meta>
					<profile value="https://fhir.nhs.uk/STU3/StructureDefinition/CareConnect-DCH-Patient-1"/>
				</meta>
				<identifier>
					<extension url="https://fhir.hl7.org.uk/STU3/StructureDefinition/Extension-CareConnect-NHSNumberVerificationStatus-1">
						<valueCodeableConcept>
							<coding>
								<system value="https://fhir.hl7.org.uk/STU3/CodeSystem/CareConnect-NHSNumberVerificationStatus-1"/>
								<code value="01"/>
								<display value="Number present and verified"/>
							</coding>
						</valueCodeableConcept>
					</extension>
					<system value="https://fhir.nhs.uk/Id/nhs-number"/>
					<value value="9912003888"/>
				</identifier>
				<name>
					<use value="official"/>
					<family value="DAWKINS"/>
					<given value="Jack"/>
				</name>
				<gender value="male"/>
				<birthDate value="2013-10-12">
					<extension url="http://hl7.org/fhir/StructureDefinition/patient-birthTime">
						<valueDateTime value="2017-10-02T12:00:00+00:00"/>
					</extension>
				</birthDate>
				<address>
					<use value="home"/>
					<line value="4 Sandmoor Drive"/>
					<city value="DURHAM"/>
					<postalCode value="DH1 2TF"/>
				</address>
			</Patient>
		</resource>
	</entry>
	<!--Legal Information Child Looked After Start Observation-->
	<entry>
		<fullUrl value="urn:uuid:6a6ae2ae-2564-4f84-a9d3-c0c755a56f6b"/>
		<resource>
			<Observation>
				<id value="6a6ae2ae-2564-4f84-a9d3-c0c755a56f6b"/>
				<meta>
					<profile value="https://fhir.nhs.uk/STU3/StructureDefinition/CareConnect-DCH-Observation-1"/>
				</meta>
				<status value="final"/>
				<code>
					<coding>
						<system value="http://snomed.info/sct"/>
						<code value="764841000000100"/>
						<display value="Looked after child"/>
					</coding>
				</code>
				<subject>
					<reference value="urn:uuid:5d5845f3-398f-474b-af59-14882fc7b0ca"/>
				</subject>
				<context>
					<reference value="urn:uuid:12779557-9033-4213-876f-69a670cdf35d"/>
				</context>
				<effectivePeriod>
					<start value="2018-02-01"/>
				</effectivePeriod>
				<performer>
					<reference value="urn:uuid:9b473f85-93a2-4a92-bad0-49a340d53b6d"/>
				</performer>
				<valueDateTime value="2018-02-01"/>
			</Observation>
		</resource>
	</entry>
	<!--Legal Information Care Plan Start Observation-->
	<entry>
		<fullUrl value="urn:uuid:c2ad391f-e0cb-4bee-b10e-e5ca76f879c5"/>
		<resource>
			<Observation>
				<id value="c2ad391f-e0cb-4bee-b10e-e5ca76f879c5"/>
				<meta>
					<profile value="https://fhir.nhs.uk/STU3/StructureDefinition/CareConnect-DCH-Observation-1"/>
				</meta>
				<status value="final"/>
				<code>
					<coding>
						<system value="http://snomed.info/sct"/>
						<code value="1064311000000109"/>
						<display value="Child protection plan"/>
					</coding>
				</code>
				<subject>
					<reference value="urn:uuid:5d5845f3-398f-474b-af59-14882fc7b0ca"/>
				</subject>
				<context>
					<reference value="urn:uuid:12779557-9033-4213-876f-69a670cdf35d"/>
				</context>
				<effectivePeriod>
					<start value="2018-02-01"/>
				</effectivePeriod>
				<performer>
					<reference value="urn:uuid:c3ebc1ed-1d60-4e15-8dc7-2a4cb6eb7af5"/>
				</performer>
				<valueDateTime value="2018-02-01"/>
			</Observation>
		</resource>
	</entry>
	<!--Local Authority (LAC)-->
	<entry>
		<fullUrl value="urn:uuid:9b473f85-93a2-4a92-bad0-49a340d53b6d"/>
		<resource>
			<Organization>
				<id value="9b473f85-93a2-4a92-bad0-49a340d53b6d"/>
				<meta>
					<profile value="https://fhir.hl7.org.uk/STU3/StructureDefinition/CareConnect-Organization-1"/>
				</meta>
				<name value="DURHAM COUNTY COUNCIL"/>
			</Organization>
		</resource>
	</entry>
	<!--Local Authority (CPP)-->
	<entry>
		<fullUrl value="urn:uuid:c3ebc1ed-1d60-4e15-8dc7-2a4cb6eb7af5"/>
		<resource>
			<Organization>
				<id value="c3ebc1ed-1d60-4e15-8dc7-2a4cb6eb7af5"/>
				<meta>
					<profile value="https://fhir.hl7.org.uk/STU3/StructureDefinition/CareConnect-Organization-1"/>
				</meta>
				<name value="DURHAM COUNTY COUNCIL"/>
			</Organization>
		</resource>
	</entry>
	<!--Legal Information Encounter details-->
	<entry>
		<fullUrl value="urn:uuid:12779557-9033-4213-876f-69a670cdf35d"/>
		<resource>
			<Encounter>
				<id value="12779557-9033-4213-876f-69a670cdf35d"/>
				<meta>
					<profile value="https://fhir.nhs.uk/STU3/StructureDefinition/CareConnect-DCH-Encounter-1"/>
				</meta>
				<status value="finished"/>
				<subject>
					<reference value="urn:uuid:5d5845f3-398f-474b-af59-14882fc7b0ca"/>
					<display value="DAWKINS, Jack"/>
				</subject>
				<period>
					<start value="2018-01-29"/>
				</period>
				<location>
					<location>
						<reference value="urn:uuid:813470e9-89e6-418b-a83e-a73f74ade903"/>
						<display value="DURHAM SOCIAL SERVICES"/>
					</location>
				</location>
				<serviceProvider>
					<reference value="urn:uuid:48833cb6-a2d5-4364-9b08-7d2ef6dacffb"/>
					<display value="DURHAM SOCIAL SERVICES"/>
				</serviceProvider>
			</Encounter>
		</resource>
	</entry>
	<!--Location where event took place-->
	<entry>
		<fullUrl value="urn:uuid:813470e9-89e6-418b-a83e-a73f74ade903"/>
		<resource>
			<Location>
				<id value="813470e9-89e6-418b-a83e-a73f74ade903"/>
				<meta>
					<profile value="https://fhir.hl7.org.uk/STU3/StructureDefinition/CareConnect-Location-1"/>
				</meta>
				<identifier>
					<system value="https://fhir.nhs.uk/Id/ods-site-code"/>
					<value value="RX3QJ"/>
				</identifier>
				<name value="DURHAM SOCIAL SERVICES"/>
			</Location>
		</resource>
	</entry>
</Bundle>
