<?xml version="1.0" encoding="UTF-8"?>
<!--This example message is provided for illustrative purposes only. It has had no clinical validation. Where there are conflicts with the written message specification or schema, the specification or schema shall be considered to take precedence-->
<Bundle xmlns="http://hl7.org/fhir">
	<id value="aea21426-8d45-4dea-baec-5856fb6c0f40"/>
	<meta>
		<profile value="https://fhir.nhs.uk/STU3/StructureDefinition/DCH-Bundle-1"/>
	</meta>
	<type value="message"/>
		<entry>
		<fullUrl value="urn:uuid:9d2e2cd9-ffe1-49c7-be43-f36e30564d3f"/>
		<resource>
			<MessageHeader>
				<id value="9d2e2cd9-ffe1-49c7-be43-f36e30564d3f"/>
				<meta>
					<profile value="https://fhir.nhs.uk/STU3/StructureDefinition/DCH-MessageHeader-1"/>
				</meta>
				<extension url="https://fhir.nhs.uk/STU3/StructureDefinition/Extension-DCH-MessageEventType-1">
					<valueCodeableConcept>
						<coding>
							<system value="https://fhir.nhs.uk/STU3/CodeSystem/DCH-MessageEventType-1"/>
							<code value="new"/>
							<display value="New event message"/>
						</coding>
					</valueCodeableConcept>
				</extension>
				<event>
					<system value="https://fhir.nhs.uk/STU3/CodeSystem/DCH-ChildHealthEventType-1"/>
					<code value="CH006"/>
					<display value="Blood Spot Sample Taken"/>
				</event>
				<timestamp value="2017-11-01T15:00:00+00:00"/>
				<source>
					<endpoint value="urn:nhs-uk:addressing:ods:RX3EP"/>
				</source>
				<responsible>
					<reference value="urn:uuid:33a33b58-648a-4453-b981-e21ea9ebc6ea"/>
					<display value="UNIVERSITY HOSPITAL OF NORTH DURHAM"/>
				</responsible>
				<focus>
					<reference value="urn:uuid:376a6bbd-abe9-43b9-9be9-d86090025e6d"/>
				</focus>
			</MessageHeader>
		</resource>
	</entry>
	
<!--Responsible Org Blood Spot-->
	<entry>
		<fullUrl value="urn:uuid:33a33b58-648a-4453-b981-e21ea9ebc6ea"/>
		<resource>
			<Organization>
				<id value="33a33b58-648a-4453-b981-e21ea9ebc6ea"/>
				<meta>
					<profile value="https://fhir.hl7.org.uk/STU3/StructureDefinition/CareConnect-Organization-1"/>
				</meta>
				<identifier>
					<system value="https://fhir.nhs.uk/Id/ods-organization-code"/>
					<value value="RX3EP"/>
				</identifier>
				<name value="UNIVERSITY HOSPITAL OF NORTH DURHAM"/>
				<address>
					<line value="NORTH ROAD"/>
					<city value="DURHAM"/>
					<district value="COUNTY DURHAM"/>
					<postalCode value="DH1 5TW"/>
				</address>
			</Organization>
		</resource>
	</entry>
	
	<!--Healthcare service used e.g GP, trust, etc..-->
	<entry>
		<fullUrl value="urn:uuid:5a293df7-b22f-41b6-8bf1-44248ea59edb"/>
		<resource>
			<HealthcareService>
				<id value="5a293df7-b22f-41b6-8bf1-44248ea59edb"/>
				<meta>
					<profile value="https://fhir.nhs.uk/STU3/StructureDefinition/DCH-HealthcareService-1"/>
				</meta>
				<identifier>
					<system value="urn:ietf:rfc:3986"/>
					<value value="2db9a96b-393f-4817-868f-3e064296f1f9"/>
				</identifier>
				<providedBy>
					<reference value="urn:uuid:33a33b58-648a-4453-b981-e21ea9ebc6ea"/>
					<display value="UNIVERSITY HOSPITAL OF NORTH DURHAM"/>
				</providedBy>
				<type>
					<coding>
						<system value="https://fhir.nhs.uk/STU3/CodeSystem/DCH-ProfessionalType-1"/>
						<code value="C09"/>
						<display value="Screener (in a National Screening Programme)"/>
					</coding>
				</type>				<location>
					<reference value="urn:uuid:e3177167-40fc-4f1a-80f2-a2f17f18fde7"/>
				</location><telecom>
				<system value="phone"/>
					<value value="0191 1231234"/>
				</telecom>
				
			</HealthcareService>
		</resource>
	</entry>
<!--Child Details (Jack Dawkins)-->
	<entry>
		<fullUrl value="urn:uuid:5d5845f3-398f-474b-af59-14882fc7b0ca"/>
		<resource>
			<Patient>
				<id value="5d5845f3-398f-474b-af59-14882fc7b0ca"/>
				<meta>
					<profile value="https://fhir.nhs.uk/STU3/StructureDefinition/CareConnect-DCH-Patient-1"/>
				</meta>
				<identifier>
						<extension url="https://fhir.hl7.org.uk/STU3/StructureDefinition/Extension-CareConnect-NHSNumberVerificationStatus-1">
							<valueCodeableConcept>
								<coding>
									<system value="https://fhir.hl7.org.uk/STU3/CodeSystem/CareConnect-NHSNumberVerificationStatus-1"/>
									<code value="01"/>
									<display value="Number present and verified"/>
								</coding>
							</valueCodeableConcept>
						</extension>
						<system value="https://fhir.nhs.uk/Id/nhs-number"/>
						<value value="9912003888"/>
				</identifier>				
				<name>
					<use value="official"/>
					<family value="DAWKINS"/>
					<given value="Jack"/>
					<period>
						<start value="2014-10-12"/>
					</period>
				</name>
				
				<birthDate value="2013-10-12">
					<extension url="http://hl7.org/fhir/StructureDefinition/patient-birthTime">
						<valueDateTime value="2017-10-02T12:00:00+00:00"/>
					</extension>
				</birthDate>
				<address>
					<use value="home"/>
					<line value="4 Sandmoor Drive"/>
					<city value="DURHAM"/>
					<postalCode value="DH1 2TF"/>
				</address>
			</Patient>
		</resource>
	</entry>
<!--Bloodspot Screening Procedure Request-->
	<entry>
		<fullUrl value="urn:uuid:09e503d7-a06e-4b5a-8dfb-30cd3b65c690"/>
		<resource>
			<ProcedureRequest>
			<meta>
				<profile value="https://fhir.nhs.uk/STU3/StructureDefinition/DCH-NewbornBloodSpotScreening-ProcedureRequest-1"/>
			</meta>
				<identifier>
					<system value="urn:ietf:rfc:3986"/>
					<value value="71d72780-92cf-4e79-8554-8fbf3d6f6e2a"/>
				</identifier>
				<status value="completed"/>
				<intent value="order"/>
				<code>
					<coding>
						<system value="http://snomed.info/sct"/>
						<code value="428447008"/>
						<display value="Newborn blood spot screening"/>
					</coding>
				</code>
				<subject>
					<reference value="urn:uuid:7368c5fe-bbb4-4e9c-a585-234e06b84e82"/>
				</subject>
				<context>
					<reference value="urn:uuid:376a6bbd-abe9-43b9-9be9-d86090025e6d"/>
				</context>
				<authoredOn value="2018-03-23"/>
				<requester>
					<agent>
						<reference value="urn:uuid:1bcb0151-4ddf-4084-9c06-e8a31fdcf25b"/>
					</agent>
				</requester>
			</ProcedureRequest>
		</resource>
	</entry>
<!--Blood Spot Sample taken Procedure-->
	<entry>
		<fullUrl value="urn:uuid:796a220c-7888-46ac-962e-46c971e1dbdf"/>
		<resource>
			<Procedure>
			<id value="796a220c-7888-46ac-962e-46c971e1dbdf"/>
			<meta>
				<profile value="https://fhir.nhs.uk/STU3/StructureDefinition/CareConnect-DCH-NewbornBloodSpotSampleTaken-Procedure-1"/>
			</meta>
				<identifier>
					<system value="urn:ietf:rfc:3986"/>
					<value value="1ee9a2ca-9ea3-438e-a5c4-9ae48821e139"/>
				</identifier>
				<status value="completed"/>
				<code>
					<coding>
						<system value="http://snomed.info/sct"/>
						<code value="898271000000100"/>
						<display value="Completion of newborn blood spot screening card (procedure)"/>
					</coding>
				</code>
				<subject>
					<reference value="urn:uuid:7368c5fe-bbb4-4e9c-a585-234e06b84e82"/>
				</subject>
				<context>
					<reference value="urn:uuid:376a6bbd-abe9-43b9-9be9-d86090025e6d"/>
				</context>
				<performedDateTime value="2017-10-13"/>
			</Procedure>
		</resource>
	</entry>	
<!--Blood Spot Encounter details-->
	<entry>
		<fullUrl value="urn:uuid:376a6bbd-abe9-43b9-9be9-d86090025e6d"/>
		<resource>
			<Encounter>
				<id value="376a6bbd-abe9-43b9-9be9-d86090025e6d"/>
				<meta>
					<profile value="https://fhir.nhs.uk/STU3/StructureDefinition/CareConnect-DCH-Encounter-1"/>
				</meta>
				<identifier>
					<system value="urn:ietf:rfc:3986"/>
					<value value="af71a415-ae02-4159-914b-8b78c499fb1d"/>
				</identifier>
				<status value="finished"/>
				<subject>
					<reference value="urn:uuid:7368c5fe-bbb4-4e9c-a585-234e06b84e82"/>
					<display value="DAWKINS, Jack"/>
				</subject>
				<period>
					<start value="2014-10-12"/>
				</period>
				<location>
					<location>
						<reference value="urn:uuid:02692f55-56cf-4dda-8ef5-e9ec13f6bd99"/>
					</location>
				</location>
				<serviceProvider>
					<reference value="urn:uuid:5a293df7-b22f-41b6-8bf1-44248ea59edb"/>
				</serviceProvider>
			</Encounter>
		</resource>
	</entry>
<!--Practitioner-->
	<entry>
		<fullUrl value="urn:uuid:1bcb0151-4ddf-4084-9c06-e8a31fdcf25b"/>
		<resource>
			<Practitioner>
				<id value="1bcb0151-4ddf-4084-9c06-e8a31fdcf25b"/>
				<meta>
					<profile value="https://fhir.nhs.uk/STU3/StructureDefinition/CareConnect-DCH-Practitioner-1"/>
				</meta>
				<identifier>
					<system value="https://fhir.nhs.uk/Id/sds-role-profile-id"/>
					<value value="PT2469"/>
				</identifier>
				<name>
					<family value="Bashir"/>
					<given value="Julian"/>
					<prefix value="Dr."/>
				</name>
			</Practitioner>
		</resource>
	</entry>
	
<!--Location where event took place (Maternity Site)-->
	<entry>
		<fullUrl value="urn:uuid:02692f55-56cf-4dda-8ef5-e9ec13f6bd99"/>
		<resource>
			<Location>
				<id value="02692f55-56cf-4dda-8ef5-e9ec13f6bd99"/>
				<meta>
					<profile value="https://fhir.hl7.org.uk/STU3/StructureDefinition/CareConnect-Location-1"/>
				</meta>
				<identifier>
					<system value="https://fhir.nhs.uk/Id/ods-site-code"/>
					<value value="RX3EP"/>
				</identifier>
			</Location>
		</resource>
	</entry>
</Bundle>
