<?xml version="1.0" encoding="UTF-8"?>
<Bundle xmlns="http://hl7.org/fhir">
	<id value="bce6720a-d13e-11e7-8941-cec278b6b50a"/>
	<meta>
		<profile value="https://fhir.nhs.uk/STU3/StructureDefinition/EMS-Bundle-1"/>
	</meta>
	<type value="message"/>
	<!--Entry for MessageHeader with id, timestamp, event type, source, responsible/publishing organization, communication-->
	<entry>
		<fullUrl value="urn:uuid:bce67336-d13e-11e7-8941-cec278b6b50a"/>
		<resource>
			<MessageHeader>
				<id value="bce67336-d13e-11e7-8941-cec278b6b50a"/>
				<meta>
					<profile value="https://fhir.nhs.uk/STU3/StructureDefinition/EMS-MessageHeader-1"/>
				</meta>
				<extension url="https://fhir.nhs.uk/STU3/StructureDefinition/Extension-EMS-MessageEventType-1">
					<valueCodeableConcept>
						<coding>
							<system value="https://fhir.nhs.uk/STU3/CodeSystem/EMS-MessageEventType-1"/>
							<code value="new"/>
							<display value="New event message"/>
						</coding>
					</valueCodeableConcept>
				</extension>
				<event>
					<system value="https://fhir.nhs.uk/STU3/CodeSystem/EMS-EventType-1"/>
					<code value="FM001"/>
					<display value="National Population Failsafe Alert"/>
				</event>
				<timestamp value="2017-12-12T10:54:32+00:00"/>
				<source>
					<endpoint value="urn:nhs:addressing:asid:477121000323"/>
				</source>
				<responsible>
					<reference value="https://directory.spineservices.nhs.uk/STU3/Organization/X26"/>
					<display value="NHS DIGITAL"/>
				</responsible>
				<focus>
					<reference value="urn:uuid:bce67822-d13e-11e7-8941-cec278b6b50a"/>
				</focus>
			</MessageHeader>
		</resource>
	</entry>
	<!--Entry for service type within the Organization i.e. National Population Failsafe-->
	<entry>
		<fullUrl value="urn:uuid:b834db08-c076-11e7-abc4-cec278b6b50a"/>
		<resource>
			<HealthcareService>
				<id value="b834db08-c076-11e7-abc4-cec278b6b50a"/>
				<meta>
					<profile value="https://fhir.nhs.uk/STU3/StructureDefinition/EMS-HealthcareService-1"/>
				</meta>
				<providedBy>
					<reference value="https://directory.spineservices.nhs.uk/STU3/Organization/X26"/>
					<display value="NHS DIGITAL"/>
				</providedBy>
				<type>
					<coding>
						<system value="https://fhir.nhs.uk/STU3/CodeSystem/EMS-HealthcareServiceType-1"/>
						<code value="NPFM"/>
						<display value="National Population Failsafe"/>
					</coding>
				</type>
			</HealthcareService>
		</resource>
	</entry>
	<!--Entry for communication for the event message, with reference to subject and payload-->
	<entry>
		<fullUrl value="urn:uuid:bce67822-d13e-11e7-8941-cec278b6b50a"/>
		<resource>
			<Communication>
				<id value="bce67822-d13e-11e7-8941-cec278b6b50a"/>
				<meta>
					<profile value="https://fhir.nhs.uk/STU3/StructureDefinition/EMS-Communication-1"/>
				</meta>
				<status value="completed"/>
				<subject>
					<reference value="urn:uuid:260b4ad0-b3df-11e7-abc4-cec278b6b50a"/>
					<display value="DAWKINS, Jack"/>
				</subject>
				<payload>
					<contentReference>
						<reference value="urn:uuid:bce67732-d13e-11e7-8941-cec278b6b50a"/>
					</contentReference>
				</payload>
			</Communication>
		</resource>
	</entry>
	<!--Entry for the Patient who is the subject of the Failsafe Alert.-->
	<entry>
		<fullUrl value="urn:uuid:260b4ad0-b3df-11e7-abc4-cec278b6b50a"/>
		<resource>
			<Patient>
				<id value="260b4ad0-b3df-11e7-abc4-cec278b6b50a"/>
				<meta>
					<profile value="https://fhir.nhs.uk/STU3/StructureDefinition/CareConnect-EMS-Patient-1"/>
				</meta>
				<identifier>
					<extension url="https://fhir.hl7.org.uk/STU3/StructureDefinition/Extension-CareConnect-NHSNumberVerificationStatus-1">
						<valueCodeableConcept>
							<coding>
								<system value="https://fhir.hl7.org.uk/STU3/CareConnect-NHSNumberVerificationStatus-1"/>
								<code value="01"/>
								<display value="Number present and verified"/>
							</coding>
						</valueCodeableConcept>
					</extension>
					<system value="https://fhir.nhs.uk/Id/nhs-number"/>
					<value value="9912003888"/>
				</identifier>
				<name>
					<use value="official"/>
					<family value="DAWKINS"/>
					<given value="Jack"/>
				</name>
				<gender value="male"/>
				<birthDate value="2017-10-02">
					<extension url="http://hl7.org/fhir/StructureDefinition/patient-birthTime">
						<valueDateTime value="2017-10-02T20:12:00+00:00"/>
					</extension>
				</birthDate>
				<address>
					<use value="home"/>
					<line value="4 Sandmoor Drive"/>
					<city value="LEEDS"/>
					<postalCode value="LS17 7DF"/>
				</address>
			</Patient>
		</resource>
	</entry>
	<!--Entry for task with content of the Failsafe Alert.-->
	<entry>
		<fullUrl value="urn:uuid:bce67732-d13e-11e7-8941-cec278b6b50a"/>
		<resource>
			<Task>
				<id value="bce67732-d13e-11e7-8941-cec278b6b50a"/>
				<meta>
					<profile value="https://fhir.nhs.uk/STU3/StructureDefinition/EMS-FailsafeAlert-Task-1"/>
				</meta>
				<!--FailsafeAlert-Severity Level-->
				<extension url="https://fhir.nhs.uk/STU3/StructureDefinition/Extension-EMS-FailsafeAlertSeverityLevel-1">
					<valueCodeableConcept>
						<coding>
							<system value="https://fhir.nhs.uk/STU3/CodeSystem/EMS-FailsafeAlertSeverityLevel-1"/>
							<code value="001"/>
							<display value="Warning Alert"/>
						</coding>
					</valueCodeableConcept>
				</extension>
				<!--FailsafeAlert-Escalation Level-->
				<extension url="https://fhir.nhs.uk/STU3/StructureDefinition/Extension-EMS-FailsafeAlertEscalationLevel-1">
					<valueCodeableConcept>
						<coding>
							<system value="https://fhir.nhs.uk/STU3/CodeSystem/EMS-FailsafeAlertEscalationLevel-1"/>
							<code value="001"/>
							<display value="Service"/>
						</coding>
					</valueCodeableConcept>
				</extension>
				<status value="requested"/>
				<intent value="order"/>
				<!--FailsafeAlert-Action Required-->
				<code>
					<coding>
						<system value="https://fhir.nhs.uk/STU3/CodeSystem/EMS-FailsafeAlertActionRequired-1"/>
						<code value="001"/>
						<display value="Please add individual to your caseload"/>
					</coding>
				</code>
				<!--FailsafeAlert-Patient-->
				<focus>
					<reference value="urn:uuid:260b4ad0-b3df-11e7-abc4-cec278b6b50a"/>
					<display value="DAWKINS, Jack"/>
				</focus>
				<!--FailsafeAlert-Date and Time raised-->
				<authoredOn value="2017-12-12T10:54:32+00:00"/>
				<!--FailsafeAlert-ServiceToAction-->
				<performerType>
					<coding>
						<system value="https://fhir.nhs.uk/STU3/CodeSystem/EMS-FailsafeAlertServiceToAction-1"/>
						<code value="Health Visiting"/>
						<display value="Health Visiting"/>
					</coding>
				</performerType>
				<owner>
					<reference value="https://directory.spineservices.nhs.uk/STU3/Organization/RY6"/>
					<display value="LEEDS COMMUNITY HEALTHCARE NHS TRUST"/>
				</owner>
				<!--FailsafeAlert-ConditionCode-->
				<reason>
					<coding>
						<system value="https://fhir.nhs.uk/STU3/CodeSystem/EMS-FailsafeAlertReason-1"/>
						<code value="001"/>
						<display value="Health Visiting Service not allocated. Individual has not been associated with a Health Visiting Service"/>
					</coding>
				</reason>
				<restriction>
					<!--FailsafeAlert-Action Required By End Date-->
					<period>
						<end value="2017-12-19T10:54:32+00:00"/>
					</period>
				</restriction>
			</Task>
		</resource>
	</entry>
</Bundle>
