<?xml version="1.0" encoding="UTF-8"?>
<!--This example message is provided for illustrative purposes only. It has had no clinical validation. Where there are conflicts with the written message specification or schema, the specification or schema shall be considered to take precedence-->
<Bundle xmlns="http://hl7.org/fhir" xmlns:xsi="http://www.w3.org/2001/XMLSchema-instance" xsi:schemaLocation="http://hl7.org/fhir ../../SchemasSTU3/bundle.xsd">
	<id value="85b9d933-b3e2-41a7-a8f2-f5ee7be4ee82"/>
	<meta>
		<profile value="https://fhir.nhs.uk/STU3/StructureDefinition/EMS-Bundle-1"/>
	</meta>
	<type value="message"/>
	<!--Entry for MessageHeader with id, timestamp, event type, source, responsible/publishing organization, communication-->
	<entry>
		<fullUrl value="urn:uuid:7165ecd5-4abb-4dbe-922b-7c7db71accd4"/>
		<resource>
			<MessageHeader>
				<id value="7165ecd5-4abb-4dbe-922b-7c7db71accd4"/>
				<meta>
					<profile value="https://fhir.nhs.uk/STU3/StructureDefinition/EMS-MessageHeader-1"/>
				</meta>
				<extension url="https://fhir.nhs.uk/STU3/StructureDefinition/Extension-EMS-MessageEventType-1">
					<valueCodeableConcept>
						<coding>
							<system value="https://fhir.nhs.uk/STU3/CodeSystem/EMS-MessageEventType-1"/>
							<code value="new"/>
							<display value="New event message"/>
						</coding>
					</valueCodeableConcept>
				</extension>
				<event>
					<system value="https://fhir.nhs.uk/STU3/CodeSystem/EMS-EventType-1"/>
					<code value="PDS003"/>
					<display value="PDS Birth Notification"/>
				</event>
				<timestamp value="2017-10-02T20:20:00+00:00"/>
				<source>
					<endpoint value="urn:nhs-uk:addressing:ods:X26"/>
				</source>
				<responsible>
					<reference value="urn:uuid:48833cb6-a2d5-4364-9b08-7d2ef6dacffb"/>
					<display value="NHS DIGITAL"/>
				</responsible>
				<focus>
					<reference value="urn:uuid:4bbf44f9-1179-4e93-a949-01a39e711de9"/>
				</focus>
			</MessageHeader>
		</resource>
	</entry>
	<!--Entry for responsible/publishing organization i.e. NHS Digital-->
	<entry>
		<fullUrl value="urn:uuid:48833cb6-a2d5-4364-9b08-7d2ef6dacffb"/>
		<resource>
			<Organization>
				<id value="48833cb6-a2d5-4364-9b08-7d2ef6dacffb"/>
				<meta>
					<profile value="https://fhir.nhs.uk/STU3/StructureDefinition/CareConnect-EMS-Organization-1"/>
				</meta>
				<identifier>
					<system value="https://fhir.nhs.uk/Id/ods-organization-code"/>
					<value value="X26"/>
				</identifier>
				<name value="NHS DIGITAL"/>
				<address>
					<line value="1 TREVELYAN SQUARE"/>
					<line value="BOAR LANE"/>
					<city value="LEEDS"/>
					<district value="WEST YORKSHIRE"/>
					<postalCode value="LS1 6AE"/>
				</address>
			</Organization>
		</resource>
	</entry>
	<!--Entry for service type within the Organization i.e. PDS-->
	<entry>
		<fullUrl value="urn:uuid:cabc41e5-0a30-42d5-bab2-18e0313c2025"/>
		<resource>
			<HealthcareService>
				<id value="cabc41e5-0a30-42d5-bab2-18e0313c2025"/>
				<meta>
					<profile value="https://fhir.nhs.uk/STU3/StructureDefinition/EMS-HealthcareService-1"/>
				</meta>
				<providedBy>
					<reference value="urn:uuid:48833cb6-a2d5-4364-9b08-7d2ef6dacffb"/>
					<display value="NHS DIGITAL"/>
				</providedBy>
				<type>
					<coding>
						<system value="https://fhir.nhs.uk/STU3/CodeSystem/EMS-HealthcareServiceType-1"/>
						<code value="PDS"/>
						<display value="Personal Demographics Service"/>
					</coding>
				</type>
			</HealthcareService>
		</resource>
	</entry>
	<!--Entry for communication for the event message, with reference to subject and payload-->
	<entry>
		<fullUrl value="urn:uuid:4bbf44f9-1179-4e93-a949-01a39e711de9"/>
		<resource>
			<Communication>
				<id value="4bbf44f9-1179-4e93-a949-01a39e711de9"/>
				<meta>
					<profile value="https://fhir.nhs.uk/STU3/StructureDefinition/EMS-Communication-1"/>
				</meta>
				<status value="completed"/>
				<subject>
					<reference value="urn:uuid:dffd3330-dc21-11e7-9296-cec278b6b50a"/>
					<display value="DAWKINS, Jack"/>
				</subject>
				<sent value="2018-02-01"/>
				<payload>
					<contentReference>
						<reference value="urn:uuid:dffd3330-dc21-11e7-9296-cec278b6b50a"/>
						<display value="DAWKINS, Jack"/>
					</contentReference>
				</payload>
			</Communication>
		</resource>
	</entry>
	<!--Entry for communication for the Patient as subject of Birth Notification.-->
	<entry>
		<fullUrl value="urn:uuid:dffd3330-dc21-11e7-9296-cec278b6b50a"/>
		<resource>
			<Patient>
				<id value="dffd3330-dc21-11e7-9296-cec278b6b50a"/>
				<meta>
					<profile value="https://fhir.nhs.uk/STU3/StructureDefinition/CareConnect-EMS-PDS-Baby-Patient-1"/>
				</meta>
				<extension url="https://fhir.hl7.org.uk/STU3/StructureDefinition/Extension-CareConnect-EthnicCategory-1">
					<valueCodeableConcept>
						<coding>
							<system value="https://fhir.hl7.org.uk/STU3/CareConnect-EthnicCategory-1"/>
							<code value="A"/>
							<display value="British, Mixed British"/>
						</coding>
					</valueCodeableConcept>
				</extension>
				<identifier>
					<extension url="https://fhir.hl7.org.uk/STU3/StructureDefinition/Extension-CareConnect-NHSNumberVerificationStatus-1">
						<valueCodeableConcept>
							<coding>
								<system value="https://fhir.hl7.org.uk/STU3/CareConnect-NHSNumberVerificationStatus-1"/>
								<code value="01"/>
								<display value="Number present and verified"/>
							</coding>
						</valueCodeableConcept>
					</extension>
					<system value="https://fhir.nhs.uk/Id/nhs-number"/>
					<value value="9912003888"/>
				</identifier>
				<name>
					<use value="usual"/>
					<family value="DAWKINS"/>
					<given value="Jack"/>
					<period>
						<start value="2017-10-02"/>
					</period>
				</name>
				<gender value="male"/>
				<birthDate value="2017-10-02">
					<extension url="http://hl7.org/fhir/StructureDefinition/patient-birthTime">
						<valueDateTime value="2017-10-02T20:12:00+00:00"/>
					</extension>
				</birthDate>
				<address>
					<use value="home"/>
					<line value="4 Sandmoor Drive"/>
					<city value="LEEDS"/>
					<postalCode value="LS17 7DF"/>
				</address>
				<multipleBirthInteger value="1"/>
			</Patient>
		</resource>
	</entry>
	<!--Entry for the Partner CHO.-->
	<entry>
		<fullUrl value="urn:uuid:b27aea28-f478-11e7-8c3f-9a214cf093ae"/>
		<resource>
			<Organization>
				<id value="b27aea28-f478-11e7-8c3f-9a214cf093ae"/>
				<meta>
					<profile value="https://fhir.nhs.uk/STU3/StructureDefinition/CareConnect-EMS-Organization-1"/>
				</meta>
				<identifier>
					<system value="https://fhir.nhs.uk/Id/ods-organization-code"/>
					<value value="RY6"/>
				</identifier>
				<name value="LEEDS COMMUNITY HEALTHCARE NHS TRUST"/>
			</Organization>
		</resource>
	</entry>
	<!--Entry for the Responsible CHO.-->
	<entry>
		<fullUrl value="urn:uuid:466bb1b3-d811-450b-852f-08f63a2e50e2"/>
		<resource>
			<Organization>
				<id value="466bb1b3-d811-450b-852f-08f63a2e50e2"/>
				<meta>
					<profile value="https://fhir.nhs.uk/STU3/StructureDefinition/CareConnect-EMS-Organization-1"/>
				</meta>
				<identifier>
					<system value="https://fhir.nhs.uk/Id/ods-organization-code"/>
					<value value="TAD"/>
				</identifier>
				<name value="BRADFORD DISTRICT CARE NHS FOUNDATION TRUST"/>
			</Organization>
		</resource>
	</entry>
	<!--Entry for the Mother of Patient.-->
	<entry>
		<fullUrl value="urn:uuid:70e10b4b-9296-4cc7-816f-97b6fa676a04"/>
		<resource>
			<Patient>
				<id value="70e10b4b-9296-4cc7-816f-97b6fa676a04"/>
				<meta>
					<profile value="https://fhir.nhs.uk/STU3/StructureDefinition/CareConnect-EMS-PDS-Mother-Patient-1"/>
				</meta>
				<identifier>
					<extension url="https://fhir.hl7.org.uk/STU3/StructureDefinition/Extension-CareConnect-NHSNumberVerificationStatus-1">
						<valueCodeableConcept>
							<coding>
								<system value="https://fhir.hl7.org.uk/STU3/CareConnect-NHSNumberVerificationStatus-1"/>
								<code value="01"/>
								<display value="Number present and verified"/>
							</coding>
						</valueCodeableConcept>
					</extension>
					<system value="https://fhir.nhs.uk/Id/nhs-number"/>
					<value value="1112223330"/>
				</identifier>
				<name>
					<use value="usual"/>
					<family value="DAWKINS"/>
					<given value="Sally"/>
				</name>
				<birthDate value="1987-10-02"/>
				<generalPractitioner>
					<reference value="urn:uuid:44120b4d-482e-4310-881c-5a22267763fb"/>
					<display value="SHADWELL MEDICAL CENTRE"/>
				</generalPractitioner>
			</Patient>
		</resource>
	</entry>
	<!--Entry for GP for the Mother of Patient.-->
	<entry>
		<fullUrl value="urn:uuid:44120b4d-482e-4310-881c-5a22267763fb"/>
		<resource>
			<Organization>
				<id value="44120b4d-482e-4310-881c-5a22267763fb"/>
				<meta>
					<profile value="https://fhir.nhs.uk/STU3/StructureDefinition/CareConnect-EMS-Organization-1"/>
				</meta>
				<identifier>
					<system value="https://fhir.nhs.uk/Id/ods-organization-code"/>
					<value value="B86056"/>
				</identifier>
				<type>
					<coding>
						<system value="http://snomed.info/sct"/>
						<code value="408443003"/>
						<display value="General medical practice (qualifier value)"/>
					</coding>
				</type>
				<name value="SHADWELL MEDICAL CENTRE"/>
				<address>
					<use value="work"/>
					<line value="137 SHADWELL LANE"/>
					<line value="LEEDS"/>
					<postalCode value="LS17 8AE"/>
				</address>
			</Organization>
		</resource>
	</entry>
	<!--Entry for birth weight observation.-->
	<entry>
		<fullUrl value="urn:uuid:cf2cb0ba-5a8c-47bc-848b-7f15922e7bb3"/>
		<resource>
			<Observation>
				<id value="cf2cb0ba-5a8c-47bc-848b-7f15922e7bb3"/>
				<meta>
					<profile value="https://fhir.nhs.uk/STU3/StructureDefinition/CareConnect-EMS-PDS-BirthWeight-Observation-1"/>
				</meta>
				<status value="final"/>
				<code>
					<coding>
						<system value="http://snomed.info/sct"/>
						<code value="364589006"/>
						<display value="Birth weight"/>
					</coding>
				</code>
				<subject>
					<reference value="urn:uuid:dffd3330-dc21-11e7-9296-cec278b6b50a"/>
					<display value="DAWKINS, Jack"/>
				</subject>
				<valueQuantity>
					<value value="3.98"/>
					<unit value="kilogram"/>
					<system value="http://unitsofmeasure.org"/>
					<code value="kg"/>
				</valueQuantity>
			</Observation>
		</resource>
	</entry>
	<!--Entry for gestation age observation.-->
	<entry>
		<fullUrl value="urn:uuid:9c4db6ba-1277-4671-8f80-35f40d39510c"/>
		<resource>
			<Observation>
				<id value="9c4db6ba-1277-4671-8f80-35f40d39510c"/>
				<meta>
					<profile value="https://fhir.nhs.uk/STU3/StructureDefinition/CareConnect-EMS-PDS-GestationAge-Observation-1"/>
				</meta>
				<status value="final"/>
				<code>
					<coding>
						<system value="http://snomed.info/sct"/>
						<code value="412726003"/>
						<display value="Length of gestation at birth"/>
					</coding>
				</code>
				<subject>
					<reference value="urn:uuid:dffd3330-dc21-11e7-9296-cec278b6b50a"/>
					<display value="DAWKINS, Jack"/>
				</subject>
				<valueQuantity>
					<value value="39"/>
					<unit value="week"/>
					<system value="http://unitsofmeasure.org"/>
					<code value="wk"/>
				</valueQuantity>
			</Observation>
		</resource>
	</entry>
	<!--Entry for number of births observation.-->
	<entry>
		<fullUrl value="urn:uuid:63a22522-7350-414f-afd2-8a1c1fdbb914"/>
		<resource>
			<Observation>
				<id value="63a22522-7350-414f-afd2-8a1c1fdbb914"/>
				<meta>
					<profile value="https://fhir.nhs.uk/STU3/StructureDefinition/CareConnect-EMS-PDS-NumberOfBirths-Observation-1"/>
				</meta>
				<status value="final"/>
				<code>
					<coding>
						<system value="http://snomed.info/sct"/>
						<code value="382341000000101"/>
						<display value="Total number of registerable births at delivery"/>
					</coding>
				</code>
				<subject>
					<reference value="urn:uuid:44120b4d-482e-4310-881c-5a22267763fb"/>
					<display value="DAWKINS, SALLY"/>
				</subject>
				<valueQuantity>
					<value value="1"/>
				</valueQuantity>
			</Observation>
		</resource>
	</entry>
	<!--Entry for still born observation.-->
	<entry>
		<fullUrl value="urn:uuid:77d20d38-4f10-4d7c-819a-72edf4cbdf82"/>
		<resource>
			<Observation>
				<id value="77d20d38-4f10-4d7c-819a-72edf4cbdf82"/>
				<meta>
					<profile value="https://fhir.nhs.uk/STU3/StructureDefinition/CareConnect-EMS-PDS-StillBornIndicator-Observation-1"/>
				</meta>
				<status value="final"/>
				<code>
					<coding>
						<system value="http://snomed.info/sct"/>
						<code value="237364002"/>
						<display value="Stillbirth"/>
					</coding>
				</code>
				<subject>
					<reference value="urn:uuid:dffd3330-dc21-11e7-9296-cec278b6b50a"/>
					<display value="DAWKINS, Jack"/>
				</subject>
				<valueCodeableConcept>
					<coding>
						<system value="https://fhir.nhs.uk/STU3/CodeSystem/EMS-PDS-StillBornIndicator-1"/>
						<code value="1"/>
						<display value="Live"/>
					</coding>
				</valueCodeableConcept>
			</Observation>
		</resource>
	</entry>
	<!--Entry for suspected congenital abnormality observation.-->
	<entry>
		<fullUrl value="urn:uuid:8945a330-3bb2-4456-8ad9-2ca37e2575f6"/>
		<resource>
			<Observation>
				<id value="8945a330-3bb2-4456-8ad9-2ca37e2575f6"/>
				<meta>
					<profile value="https://fhir.nhs.uk/STU3/StructureDefinition/CareConnect-EMS-PDS-SuspectedCongenitalAbnormalityIndicator-Observation-1"/>
				</meta>
				<status value="final"/>
				<code>
					<coding>
						<system value="http://snomed.info/sct"/>
						<code value="1097291000000101"/>
						<display value="Suspected congenital abnormality (situation)"/>
					</coding>
				</code>
				<subject>
					<reference value="urn:uuid:dffd3330-dc21-11e7-9296-cec278b6b50a"/>
					<display value="DAWKINS, Jack"/>
				</subject>
				<valueCodeableConcept>
					<coding>
						<system value="https://fhir.nhs.uk/STU3/CodeSystem/EMS-PDS-SuspectedCongenitalAbnormalityIndicator-1"/>
						<code value="N"/>
						<display value="No"/>
					</coding>
				</valueCodeableConcept>
			</Observation>
		</resource>
	</entry>
	<!--Entry for Delivery Place.-->
	<entry>
		<fullUrl value="urn:uuid:986d1c21-11f3-4b01-b6a5-e38c85108b76"/>
		<resource>
			<Organization>
				<id value="986d1c21-11f3-4b01-b6a5-e38c85108b76"/>
				<meta>
					<profile value="https://fhir.nhs.uk/STU3/StructureDefinition/CareConnect-EMS-PDS-DeliveryPlace-Organization-1"/>
				</meta>
				<identifier>
					<system value="https://fhir.nhs.uk/Id/ods-organization-code"/>
					<value value="RR830"/>
				</identifier>
				<type>
					<coding>
						<system value="https://fhir.nhs.uk/STU3/CodeSystem/EMS-PDS-DeliveryPlaceType-1"/>
						<code value="4"/>
						<display value="In NHS hospital - delivery facilities associated with consultant/GMP/midwife ward inclusive of any combination of two of the professionals mentioned"/>
					</coding>
				</type>
				<name value="CLARENDON WING, LEEDS GENERAL INFIRMARY"/>
			</Organization>
		</resource>
	</entry>
	<!--Entry for notifying person.-->
	<entry>
		<fullUrl value="urn:uuid:60ed27f9-ff3a-4085-aa79-e4295e0f7c65"/>
		<resource>
			<Practitioner>
				<id value="60ed27f9-ff3a-4085-aa79-e4295e0f7c65"/>
				<meta>
					<profile value="https://fhir.nhs.uk/STU3/StructureDefinition/CareConnect-EMS-Practitioner-1"/>
				</meta>
				<identifier>
					<system value="https://fhir.nhs.uk/Id/sds-user-id"/>
					<value value="123456"/>
				</identifier>
				<name>
					<use value="official"/>
					<family value="JONES"/>
					<given value="JANE"/>
				</name>
			</Practitioner>
		</resource>
	</entry>
	<!--Entry for Registering Authority-->
	<entry>
		<fullUrl value="urn:uuid:bd9ede5e-78ea-421a-990f-a80e0bbf2692"/>
		<resource>
			<Organization>
				<id value="bd9ede5e-78ea-421a-990f-a80e0bbf2692"/>
				<meta>
					<profile value="https://fhir.nhs.uk/STU3/StructureDefinition/CareConnect-EMS-PDS-RegisteringAuthority-Organization-1"/>
				</meta>
				<identifier>
					<system value="https://fhir.nhs.uk/Id/ods-organization-code"/>
					<value value="RR8"/>
				</identifier>
				<type>
					<coding>
						<system value="https://fhir.nhs.uk/STU3/CodeSystem/EMS-PDS-RegisteringAuthorityType-1"/>
						<code value="c"/>
						<display value="NHS Trust"/>
					</coding>
				</type>
				<name value="LEEDS TEACHING HOSPITALS NHS TRUST"/>
			</Organization>
		</resource>
	</entry>
</Bundle>
