<?xml version="1.0" encoding="UTF-8"?>
<Bundle xmlns="http://hl7.org/fhir">
	<id value="096d372f-1996-40d1-8ac6-73be5c49f7eb"/>
	<meta>
		<profile value="https://fhir.nhs.uk/STU3/StructureDefinition/EMS-Bundle-1"/>
	</meta>
	<type value="message"/>
	<entry>
		<fullUrl value="urn:uuid:e83118d5-b888-42d6-bf38-7e21b83a7f9b"/>
		<resource>
			<MessageHeader>
				<id value="e83118d5-b888-42d6-bf38-7e21b83a7f9b"/>
				<meta>
					<profile value="https://fhir.nhs.uk/STU3/StructureDefinition/EMS-MessageHeader-1"/>
				</meta>
				<extension url="https://fhir.nhs.uk/STU3/StructureDefinition/Extension-EMS-MessageEventType-1">
					<valueCodeableConcept>
						<coding>
							<system value="https://fhir.nhs.uk/STU3/CodeSystem/EMS-MessageEventType-1"/>
							<code value="new"/>
							<display value="New event message"/>
						</coding>
					</valueCodeableConcept>
				</extension>
				<event>
					<system value="https://fhir.nhs.uk/STU3/CodeSystem/EMS-EventType-1"/>
					<code value="FM002"/>
					<display value="National Population Failsafe Alert Nullify"/>
				</event>
				<destination>
					<endpoint value="urn:nhs:addressing:asid:477121000323"/>
				</destination>
				<timestamp value="2018-02-01T09:00:00+00:00"/>
				<source>
					<endpoint value="urn:nhs:addressing:asid:300000000161"/>
				</source>
				<responsible>
					<reference value="urn:uuid:96567375-5c25-4aae-93d4-c626d94572d1"/>
					<display value="LEEDS COMMUNITY HEALTHCARE NHS TRUST"/>
				</responsible>
				<focus>
					<reference value="urn:uuid:59298948-b3ed-4b99-a17a-b7b53ea239e0"/>
				</focus>
			</MessageHeader>
		</resource>
	</entry>
	<entry>
		<fullUrl value="urn:uuid:96567375-5c25-4aae-93d4-c626d94572d1"/>
		<resource>
			<Organization>
				<id value="96567375-5c25-4aae-93d4-c626d94572d1"/>
				<meta>
					<profile value="https://fhir.hl7.org.uk/STU3/StructureDefinition/CareConnect-Organization-1"/>
				</meta>
				<identifier>
					<system value="https://fhir.nhs.uk/STU3/Id/ods-organization-code"/>
					<value value="RY6"/>
				</identifier>
				<name value="LEEDS COMMUNITY HEALTHCARE NHS TRUST"/>
			</Organization>
		</resource>
	</entry>
	<!--Entry for service type within the Organization-->
	<entry>
		<fullUrl value="urn:uuid:5224bd3d-1fc6-4364-b091-31a2e577b322"/>
		<resource>
			<HealthcareService>
				<id value="5224bd3d-1fc6-4364-b091-31a2e577b322"/>
				<meta>
					<profile value="https://fhir.nhs.uk/STU3/STU3/StructureDefinition/EMS-HealthcareService-1"/>
				</meta>
				<identifier>
					<system value="https://tools.ietf.org/html/rfc4122"/>
					<value value="5224bd3d-1fc6-4364-b091-31a2e577b322"/>
				</identifier>
				<providedBy>
					<reference value="urn:uuid:96567375-5c25-4aae-93d4-c626d94572d1"/>
					<display value="LEEDS COMMUNITY HEALTHCARE NHS TRUST"/>
				</providedBy>
				<type>
					<coding>
						<system value="https://fhir.nhs.uk/STU3/STU3/CodeSystem/EMS-HealthcareServiceType-1"/>
						<code value="N03"/>
						<display value="Health Visitor"/>
					</coding>
				</type>
			</HealthcareService>
		</resource>
	</entry>
	<entry>
		<fullUrl value="urn:uuid:59298948-b3ed-4b99-a17a-b7b53ea239e0"/>
		<resource>
			<Communication>
				<id value="59298948-b3ed-4b99-a17a-b7b53ea239e0"/>
				<meta>
					<profile value="https://fhir.nhs.uk/STU3/StructureDefinition/EMS-Communication-1"/>
				</meta>
				<identifier>
					<system value="https://tools.ietf.org/html/rfc4122"/>
					<value value="59298948-b3ed-4b99-a17a-b7b53ea239e0"/>
				</identifier>
				<status value="completed"/>
				<subject>
					<reference value="urn:uuid:a5349bcc-a922-4655-a22d-d376b5d5bad0"/>
					<display value="DAWKINS, Jack"/>
				</subject>
				<sent value="2018-02-01T09:00:00+00:00"/>
				<payload>
					<contentReference>
						<reference value="urn:uuid:5510dd9c-44a4-414c-acd1-c30c18fc9575"/>
					</contentReference>
				</payload>
			</Communication>
		</resource>
	</entry>
	<entry>
		<fullUrl value="urn:uuid:a5349bcc-a922-4655-a22d-d376b5d5bad0"/>
		<resource>
			<Patient>
				<id value="a5349bcc-a922-4655-a22d-d376b5d5bad0"/>
				<meta>
					<profile value="https://fhir.nhs.uk/STU3/StructureDefinition/CareConnect-EMS-Patient-1"/>
				</meta>
				<identifier>
					<extension url="https://fhir.hl7.org.uk/STU3/StructureDefinition/Extension-CareConnect-NHSNumberVerificationStatus-1">
						<valueCodeableConcept>
							<coding>
								<system value="https://fhir.hl7.org.uk/STU3/CareConnect-NHSNumberVerificationStatus-1"/>
								<code value="01"/>
								<display value="Number present and verified"/>
							</coding>
						</valueCodeableConcept>
					</extension>
					<system value="https://fhir.nhs.uk/Id/nhs-number"/>
					<value value="9912003888"/>
				</identifier>
				<name>
					<use value="official"/>
					<family value="DAWKINS"/>
					<given value="Jack"/>
				</name>
				<gender value="male"/>
				<birthDate value="2017-10-02">
					<extension url="http://hl7.org/fhir/StructureDefinition/patient-birthTime">
						<valueDateTime value="2017-10-02T20:12:00+00:00"/>
					</extension>
				</birthDate>
				<address>
					<use value="home"/>
					<line value="4 Sandmoor Drive"/>
					<city value="LEEDS"/>
					<postalCode value="LS17 7DF"/>
				</address>
			</Patient>
		</resource>
	</entry>
	<entry>
		<fullUrl value="urn:uuid:5510dd9c-44a4-414c-acd1-c30c18fc9575"/>
		<resource>
			<Task>
				<id value="5510dd9c-44a4-414c-acd1-c30c18fc9575"/>
				<meta>
					<profile value="https://fhir.nhs.uk/STU3/StructureDefinition/EMS-FailsafeAlertNullify-Task-1"/>
				</meta>
				<identifier>
					<system value="https://tools.ietf.org/html/rfc4122"/>
					<value value="5510dd9c-44a4-414c-acd1-c30c18fc9575"/>
				</identifier>
				<status value="requested"/>
				<intent value="order"/>
				<authoredOn value="2018-02-01T09:00:00+00:00"/>
				<requester>
					<agent>
						<reference value="urn:uuid:96567375-5c25-4aae-93d4-c626d94572d1"/>
						<display value="LEEDS COMMUNITY HEALTHCARE NHS TRUST"/>
					</agent>
				</requester>
				<reason>
					<coding>
						<system value="https://fhir.nhs.uk/STU3/CodeSystem/EMS-NullifyFailsafeAlertReason-1"/>
						<code value="001"/>
						<display value="Agreement in place that service is to be provided by a different organisation"/>
					</coding>
				</reason>
			</Task>
		</resource>
	</entry>
</Bundle>
