{
  "resourceType": "Bundle",
  "id": "e19b2ec1-6c6b-4278-a0bb-cea2f4ecb917",
  "meta": {
    "profile": [
      "https://fhir.nhs.uk/STU3/StructureDefinition/EMS-Bundle-1"
    ]
  },
  "type": "message",
  "entry": [
    {
      "fullUrl": "urn:uuid:54cbe7a2-0a13-4f22-a073-f15aa7b8b5a5",
      "resource": {
        "resourceType": "MessageHeader",
        "id": "54cbe7a2-0a13-4f22-a073-f15aa7b8b5a5",
        "meta": {
          "profile": [
            "https://fhir.nhs.uk/STU3/StructureDefinition/EMS-MessageHeader-1"
          ]
        },
        "extension": [
          {
            "url": "https://fhir.nhs.uk/STU3/StructureDefinition/Extension-EMS-MessageEventType-1",
            "valueCodeableConcept": {
              "coding": [
                {
                  "system": "https://fhir.nhs.uk/STU3/CodeSystem/EMS-MessageEventType-1",
                  "code": "new",
                  "display": "New event message"
                }
              ]
            }
          }
        ],
        "event": {
          "system": "https://fhir.nhs.uk/STU3/CodeSystem/EMS-EventType-1",
          "code": "PDS004",
          "display": "PDS Person Death"
        },
        "timestamp": "2017-11-01T15:00:00+00:00",
        "source": {
          "endpoint": "urn:nhs-uk:addressing:ods:X26"
        },
        "responsible": {
          "reference": "https://directory.spineservices.nhs.uk/STU3/Organization/X26",
          "display": "NHS DIGITAL"
        },
        "focus": [
          {
            "reference": "urn:uuid:3a56ba02-785b-4f34-9282-d7129c8e134e"
          }
        ]
      }
    },
    {
      "fullUrl": "urn:uuid:786f6800-4a71-4b75-83c6-9aa6b27baf9a",
      "resource": {
        "resourceType": "Organization",
        "id": "786f6800-4a71-4b75-83c6-9aa6b27baf9a",
        "meta": {
          "profile": [
            "https://fhir.hl7.org.uk/STU3/StructureDefinition/CareConnect-Organization-1"
          ]
        },
        "identifier": [
          {
            "system": "https://fhir.nhs.uk/Id/ods-organization-code",
            "value": "X26"
          }
        ],
        "name": "NHS DIGITAL",
        "address": [
          {
            "line": [
              "1 TREVELYAN SQUARE",
              "BOAR LANE"
            ],
            "city": "LEEDS",
            "district": "WEST YORKSHIRE",
            "postalCode": "LS1 6AE"
          }
        ]
      }
    },
    {
      "fullUrl": "urn:uuid:9c04e8e1-cac2-4559-af50-f2b2856c5a91",
      "resource": {
        "resourceType": "HealthcareService",
        "id": "9c04e8e1-cac2-4559-af50-f2b2856c5a91",
        "meta": {
          "profile": [
            "https://fhir.nhs.uk/STU3/StructureDefinition/EMS-HealthcareService-1"
          ]
        },
        "providedBy": {
          "reference": "https://directory.spineservices.nhs.uk/STU3/Organization/X26",
          "display": "NHS DIGITAL"
        },
        "type": [
          {
            "coding": [
              {
                "system": "https://fhir.nhs.uk/STU3/CodeSystem/EMS-HealthcareServiceType-1",
                "code": "PDS",
                "display": "Personal Demographics Service"
              }
            ]
          }
        ]
      }
    },
    {
      "fullUrl": "urn:uuid:3a56ba02-785b-4f34-9282-d7129c8e134e",
      "resource": {
        "resourceType": "Communication",
        "id": "3a56ba02-785b-4f34-9282-d7129c8e134e",
        "meta": {
          "profile": [
            "https://fhir.nhs.uk/STU3/StructureDefinition/EMS-Communication-1"
          ]
        },
        "status": "completed",
        "subject": {
          "reference": "urn:uuid:dffd2ca0-dc21-11e7-9296-cec278b6b50a",
          "display": "JONES, Jack"
        },
        "sent": "2018-02-08",
        "payload": [
          {
            "contentReference": {
              "reference": "urn:uuid:dffd2ca0-dc21-11e7-9296-cec278b6b50a",
              "display": "JONES, Jack"
            }
          }
        ]
      }
    },
    {
      "fullUrl": "urn:uuid:dffd2ca0-dc21-11e7-9296-cec278b6b50a",
      "resource": {
        "resourceType": "Patient",
        "id": "dffd2ca0-dc21-11e7-9296-cec278b6b50a",
        "meta": {
          "profile": [
            "https://fhir.nhs.uk/STU3/StructureDefinition/CareConnect-EMS-Patient-1"
          ]
        },
        "extension": [
          {
            "url": "https://fhir.hl7.org.uk/STU3/StructureDefinition/Extension-CareConnect-DeathNotificationStatus-1",
            "valueCodeableConcept": {
              "coding": [
                {
                  "system": "https://fhir.hl7.org.uk/STU3/CodeSystem/CareConnect-DeathNotificationStatus-1",
                  "code": "2",
                  "display": "Formal - death notice received from Registrar of Deaths"
                }
              ]
            }
          }
        ],
        "identifier": [
          {
            "extension": [
              {
                "url": "https://fhir.hl7.org.uk/STU3/StructureDefinition/Extension-CareConnect-NHSNumberVerificationStatus-1",
                "valueCodeableConcept": {
                  "coding": [
                    {
                      "system": "https://fhir.hl7.org.uk/STU3/CareConnect-NHSNumberVerificationStatus-1",
                      "code": "01",
                      "display": "Number present and verified"
                    }
                  ]
                }
              }
            ],
            "system": "https://fhir.nhs.uk/Id/nhs-number",
            "value": "6101231234"
          }
        ],
        "name": [
          {
            "family": "JONES",
            "given": [
              "Jack"
            ]
          }
        ],
        "gender": "male",
        "deceasedDateTime": "2017-11-01T15:00:00+00:00",
        "address": [
          {
            "use": "home",
            "line": [
              "4 Sandmoor Drive"
            ],
            "city": "LEEDS",
            "postalCode": "LS17 7DF"
          }
        ]
      }
    },
    {
      "fullUrl": "urn:uuid:833a9a73-8f86-4f04-9a68-362052b7dca6",
      "resource": {
        "resourceType": "Communication",
        "id": "833a9a73-8f86-4f04-9a68-362052b7dca6",
        "meta": {
          "profile": [
            "https://fhir.nhs.uk/STU3/StructureDefinition/EMS-PDS-PersonDeath-Communication-1"
          ]
        },
        "extension": [
          {
            "url": "https://fhir.nhs.uk/STU3/StructureDefinition/Extension-EMS-PDS-DeathCause-1",
            "extension": [
              {
                "url": "deathCauseComment",
                "valueString": "Died of natural causes"
              },
              {
                "url": "deathCauseIdentificationMethod",
                "valueCodeableConcept": {
                  "coding": [
                    {
                      "system": "https://fhir.nhs.uk/STU3/CodeSystem/EMS-PDS-DeathCauseIdentificationMethod-1",
                      "code": "1",
                      "display": "Death certificate"
                    }
                  ]
                }
              }
            ]
          },
          {
            "url": "https://fhir.nhs.uk/STU3/StructureDefinition/Extension-EMS-PDS-DeathLocationType-1",
            "valueCodeableConcept": {
              "coding": [
                {
                  "system": "https://fhir.nhs.uk/STU3/CodeSystem/EMS-PDS-DeathLocationType-1",
                  "code": "10",
                  "display": "Hospital"
                }
              ]
            }
          }
        ],
        "status": "completed",
        "subject": {
          "reference": "urn:uuid:dffd2ca0-dc21-11e7-9296-cec278b6b50a",
          "display": "JONES, Jack"
        },
        "sent": "2018-02-01"
      }
    }
  ]
}