{
  "resourceType": "Bundle",
  "id": "bce6720a-d13e-11e7-8941-cec278b6b50a",
  "meta": {
    "profile": [
      "https://fhir.nhs.uk/STU3/StructureDefinition/EMS-Bundle-1"
    ]
  },
  "type": "message",
  "entry": [
    {
      "fullUrl": "urn:uuid:bce67336-d13e-11e7-8941-cec278b6b50a",
      "resource": {
        "resourceType": "MessageHeader",
        "id": "bce67336-d13e-11e7-8941-cec278b6b50a",
        "meta": {
          "profile": [
            "https://fhir.nhs.uk/STU3/StructureDefinition/EMS-MessageHeader-1"
          ]
        },
        "extension": [
          {
            "url": "https://fhir.nhs.uk/STU3/StructureDefinition/Extension-EMS-MessageEventType-1",
            "valueCodeableConcept": {
              "coding": [
                {
                  "system": "https://fhir.nhs.uk/STU3/CodeSystem/EMS-MessageEventType-1",
                  "code": "new",
                  "display": "New event message"
                }
              ]
            }
          }
        ],
        "event": {
          "system": "https://fhir.nhs.uk/STU3/CodeSystem/EMS-EventType-1",
          "code": "FM001",
          "display": "National Population Failsafe Alert"
        },
        "timestamp": "2017-12-12T10:54:32+00:00",
        "source": {
          "endpoint": "urn:nhs-uk:addressing:ods:X26"
        },
        "responsible": {
          "reference": "urn:uuid:b834d806-c076-11e7-abc4-cec278b6b50a",
          "display": "NHS DIGITAL"
        },
        "focus": [
          {
            "reference": "urn:uuid:bce67822-d13e-11e7-8941-cec278b6b50a"
          }
        ]
      }
    },
    {
      "fullUrl": "urn:uuid:b834d806-c076-11e7-abc4-cec278b6b50a",
      "resource": {
        "resourceType": "Organization",
        "id": "b834d806-c076-11e7-abc4-cec278b6b50a",
        "meta": {
          "profile": [
            "https://fhir.hl7.org.uk/STU3/StructureDefinition/CareConnect-Organization-1"
          ]
        },
        "identifier": [
          {
            "system": "https://fhir.nhs.uk/Id/ods-organization-code",
            "value": "X26"
          }
        ],
        "name": "NHS DIGITAL",
        "address": [
          {
            "line": [
              "1 TREVELYAN SQUARE",
              "BOAR LANE"
            ],
            "city": "LEEDS",
            "district": "WEST YORKSHIRE",
            "postalCode": "LS1 6AE"
          }
        ]
      }
    },
    {
      "fullUrl": "urn:uuid:b834db08-c076-11e7-abc4-cec278b6b50a",
      "resource": {
        "resourceType": "HealthcareService",
        "id": "b834db08-c076-11e7-abc4-cec278b6b50a",
        "meta": {
          "profile": [
            "https://fhir.nhs.uk/STU3/StructureDefinition/EMS-HealthcareService-1"
          ]
        },
        "providedBy": {
          "reference": "urn:uuid:b834d806-c076-11e7-abc4-cec278b6b50a",
          "display": "NHS DIGITAL"
        },
        "type": [
          {
            "coding": [
              {
                "system": "https://fhir.nhs.uk/STU3/CodeSystem/EMS-HealthcareServiceType-1",
                "code": "NPFM",
                "display": "National Population Failsafe"
              }
            ]
          }
        ]
      }
    },
    {
      "fullUrl": "urn:uuid:bce67822-d13e-11e7-8941-cec278b6b50a",
      "resource": {
        "resourceType": "Communication",
        "id": "bce67822-d13e-11e7-8941-cec278b6b50a",
        "meta": {
          "profile": [
            "https://fhir.nhs.uk/STU3/StructureDefinition/EMS-Communication-1"
          ]
        },
        "status": "completed",
        "subject": {
          "reference": "urn:uuid:260b4ad0-b3df-11e7-abc4-cec278b6b50a",
          "display": "DAWKINS, Jack"
        },
        "payload": [
          {
            "contentReference": {
              "reference": "urn:uuid:bce67732-d13e-11e7-8941-cec278b6b50a"
            }
          }
        ]
      }
    },
    {
      "fullUrl": "urn:uuid:260b4ad0-b3df-11e7-abc4-cec278b6b50a",
      "resource": {
        "resourceType": "Patient",
        "id": "260b4ad0-b3df-11e7-abc4-cec278b6b50a",
        "meta": {
          "profile": [
            "https://fhir.nhs.uk/STU3/StructureDefinition/CareConnect-EMS-Patient-1"
          ]
        },
        "identifier": [
          {
            "extension": [
              {
                "url": "https://fhir.hl7.org.uk/STU3/StructureDefinition/Extension-CareConnect-NHSNumberVerificationStatus-1",
                "valueCodeableConcept": {
                  "coding": [
                    {
                      "system": "https://fhir.hl7.org.uk/STU3/CareConnect-NHSNumberVerificationStatus-1",
                      "code": "01",
                      "display": "Number present and verified"
                    }
                  ]
                }
              }
            ],
            "system": "https://fhir.nhs.uk/Id/nhs-number",
            "value": "9912003888"
          }
        ],
        "name": [
          {
            "use": "usual",
            "family": "DAWKINS",
            "given": [
              "Jack"
            ]
          }
        ],
        "gender": "male",
        "birthDate": "2017-10-02",
        "_birthDate": {
          "extension": [
            {
              "url": "http://hl7.org/fhir/StructureDefinition/patient-birthTime",
              "valueDateTime": "2017-10-02T20:12:00+00:00"
            }
          ]
        },
        "address": [
          {
            "use": "home",
            "line": [
              "4 Sandmoor Drive"
            ],
            "city": "LEEDS",
            "postalCode": "LS17 7DF"
          }
        ]
      }
    },
    {
      "fullUrl": "urn:uuid:bce67732-d13e-11e7-8941-cec278b6b50a",
      "resource": {
        "resourceType": "Task",
        "id": "bce67732-d13e-11e7-8941-cec278b6b50a",
        "meta": {
          "profile": [
            "https://fhir.nhs.uk/STU3/StructureDefinition/EMS-FailsafeAlert-Task-1"
          ]
        },
        "extension": [
          {
            "url": "https://fhir.nhs.uk/STU3/StructureDefinition/Extension-EMS-FailsafeAlertSeverityLevel-1",
            "valueCodeableConcept": {
              "coding": [
                {
                  "system": "https://fhir.nhs.uk/STU3/CodeSystem/EMS-FailsafeAlertSeverityLevel-1",
                  "code": "001",
                  "display": "Warning Alert"
                }
              ]
            }
          },
          {
            "url": "https://fhir.nhs.uk/STU3/StructureDefinition/Extension-EMS-FailsafeAlertEscalationLevel-1",
            "valueCodeableConcept": {
              "coding": [
                {
                  "system": "https://fhir.nhs.uk/STU3/CodeSystem/EMS-FailsafeAlertEscalationLevel-1",
                  "code": "001",
                  "display": "Service"
                }
              ]
            }
          }
        ],
        "status": "requested",
        "intent": "order",
        "code": {
          "coding": [
            {
              "system": "https://fhir.nhs.uk/STU3/CodeSystem/EMS-FailsafeAlertActionRequired-1",
              "code": "001",
              "display": "Please add individual to your caseload"
            }
          ]
        },
        "description": "Severity Level: 001 - Warning Alert - Escalation Level: 001 - Service - Condition ID: 001 - Condition Description: Health Visiting Service not allocated - Reason for alert: Individual has not been associated with a Health Visiting Service - Service needed to action: Health Visiting - Action Required: Please add individual to your caseload - Action Required by Date: 2017-12-19T10:54:32+00:00",
        "focus": {
          "reference": "urn:uuid:260b4ad0-b3df-11e7-abc4-cec278b6b50a",
          "display": "DAWKINS, Jack"
        },
        "authoredOn": "2017-12-12T10:54:32+00:00",
        "performerType": [
          {
            "coding": [
              {
                "system": "https://fhir.nhs.uk/STU3/CodeSystem/EMS-FailsafeAlertServiceToAction-1",
                "code": "Health Visiting",
                "display": "Health Visiting"
              }
            ]
          }
        ],
        "owner": {
          "reference": "urn:uuid:96567375-5c25-4aae-93d4-c626d94572d1",
          "display": "LEEDS COMMUNITY HEALTHCARE NHS TRUST"
        },
        "reason": {
          "coding": [
            {
              "system": "https://fhir.nhs.uk/STU3/CodeSystem/EMS-FailsafeAlertReason-1",
              "code": "001",
              "display": "Health Visiting Service not allocated. Individual has not been associated with a Health Visiting Service"
            }
          ]
        },
        "restriction": {
          "period": {
            "end": "2017-12-19T10:54:32+00:00"
          }
        }
      }
    },
    {
      "fullUrl": "urn:uuid:96567375-5c25-4aae-93d4-c626d94572d1",
      "resource": {
        "resourceType": "Organization",
        "id": "96567375-5c25-4aae-93d4-c626d94572d1",
        "meta": {
          "profile": [
            "https://fhir.nhs.uk/STU3/STU3/StructureDefinition/CareConnect-DCH-Organization-1"
          ]
        },
        "identifier": [
          {
            "system": "https://fhir.nhs.uk/STU3/Id/ods-organization-code",
            "value": "RY6"
          }
        ],
        "name": "LEEDS COMMUNITY HEALTHCARE NHS TRUST"
      }
    }
  ]
}