<?xml version="1.0" encoding="UTF-8"?>
<Bundle xmlns="http://hl7.org/fhir">
	<id value="e19b2ec1-6c6b-4278-a0bb-cea2f4ecb917"/>
	<meta>
		<profile value="https://fhir.nhs.uk/STU3/StructureDefinition/EMS-Bundle-1"/>
	</meta>
	<type value="message"/>
	<!--Entry for MessageHeader with id, timestamp, event type, source, responsible/publishing organization, communication-->
	<entry>
		<fullUrl value="urn:uuid:54cbe7a2-0a13-4f22-a073-f15aa7b8b5a5"/>
		<resource>
			<MessageHeader>
				<id value="54cbe7a2-0a13-4f22-a073-f15aa7b8b5a5"/>
				<meta>
					<profile value="https://fhir.nhs.uk/STU3/StructureDefinition/EMS-MessageHeader-1"/>
				</meta>
				<extension url="https://fhir.nhs.uk/STU3/StructureDefinition/Extension-EMS-MessageEventType-1">
					<valueCodeableConcept>
						<coding>
							<system value="https://fhir.nhs.uk/STU3/CodeSystem/EMS-MessageEventType-1"/>
							<code value="new"/>
							<display value="New event message"/>
						</coding>
					</valueCodeableConcept>
				</extension>
				<event>
					<system value="https://fhir.nhs.uk/STU3/CodeSystem/EMS-EventType-1"/>
					<code value="PDS004"/>
					<display value="PDS Person Death"/>
				</event>
				<timestamp value="2017-11-01T15:00:00+00:00"/>
				<source>
					<endpoint value="urn:nhs-uk:addressing:ods:X26"/>
				</source>
				<responsible>
					<reference value="https://directory.spineservices.nhs.uk/STU3/Organization/X26"/>
					<display value="NHS DIGITAL"/>
				</responsible>
				<focus>
					<reference value="urn:uuid:3a56ba02-785b-4f34-9282-d7129c8e134e"/>
				</focus>
			</MessageHeader>
		</resource>
	</entry>
	<!--Entry for responsible/publishing organization i.e. NHS Digital-->
	<entry>
		<fullUrl value="urn:uuid:786f6800-4a71-4b75-83c6-9aa6b27baf9a"/>
		<resource>
			<Organization>
				<id value="786f6800-4a71-4b75-83c6-9aa6b27baf9a"/>
				<meta>
					<profile value="https://fhir.hl7.org.uk/STU3/StructureDefinition/CareConnect-Organization-1"/>
				</meta>
				<identifier>
					<system value="https://fhir.nhs.uk/Id/ods-organization-code"/>
					<value value="X26"/>
				</identifier>
				<name value="NHS DIGITAL"/>
				<address>
					<line value="1 TREVELYAN SQUARE"/>
					<line value="BOAR LANE"/>
					<city value="LEEDS"/>
					<district value="WEST YORKSHIRE"/>
					<postalCode value="LS1 6AE"/>
				</address>
			</Organization>
		</resource>
	</entry>
	<!--Entry for service type within the Organization i.e. PDS-->
	<entry>
		<fullUrl value="urn:uuid:9c04e8e1-cac2-4559-af50-f2b2856c5a91"/>
		<resource>
			<HealthcareService>
				<id value="9c04e8e1-cac2-4559-af50-f2b2856c5a91"/>
				<meta>
					<profile value="https://fhir.nhs.uk/STU3/StructureDefinition/EMS-HealthcareService-1"/>
				</meta>
				<providedBy>
					<reference value="https://directory.spineservices.nhs.uk/STU3/Organization/X26"/>
					<display value="NHS DIGITAL"/>
				</providedBy>
				<type>
					<coding>
						<system value="https://fhir.nhs.uk/STU3/CodeSystem/EMS-HealthcareServiceType-1"/>
						<code value="PDS"/>
						<display value="Personal Demographics Service"/>
					</coding>
				</type>
			</HealthcareService>
		</resource>
	</entry>
	<!--Entry for communication for the event message, with reference to subject and payload-->
	<entry>
		<fullUrl value="urn:uuid:3a56ba02-785b-4f34-9282-d7129c8e134e"/>
		<resource>
			<Communication>
				<id value="3a56ba02-785b-4f34-9282-d7129c8e134e"/>
				<meta>
					<profile value="https://fhir.nhs.uk/STU3/StructureDefinition/EMS-Communication-1"/>
				</meta>
				<status value="completed"/>
				<subject>
					<reference value="urn:uuid:dffd2ca0-dc21-11e7-9296-cec278b6b50a"/>
					<display value="JONES, Jack"/>
				</subject>
				<sent value="2018-02-08"/>
				<payload>
				<contentReference>
						<reference value="urn:uuid:dffd2ca0-dc21-11e7-9296-cec278b6b50a"/>
						<display value="JONES, Jack"/>
					</contentReference>
				</payload>
			</Communication>
		</resource>
	</entry>
	<!--Entry for Patient-->
	<entry>
		<fullUrl value="urn:uuid:dffd2ca0-dc21-11e7-9296-cec278b6b50a"/>
		<resource>
			<Patient>
				<id value="dffd2ca0-dc21-11e7-9296-cec278b6b50a"/>
				<meta>
					<profile value="https://fhir.hl7.org.uk/STU3/StructureDefinition/CareConnect-Patient-1"/>
				</meta>
				<extension url="https://fhir.hl7.org.uk/STU3/StructureDefinition/Extension-CareConnect-DeathNotificationStatus-1">
					<valueCodeableConcept>
						<coding>
							<system value="https://fhir.hl7.org.uk/STU3/CodeSystem/CareConnect-DeathNotificationStatus-1"/>
							<code value="2"/>
							<display value="Formal - death notice received from Registrar of Deaths"/>
						</coding>
					</valueCodeableConcept>
				</extension>
				<identifier>
					<extension url="https://fhir.hl7.org.uk/STU3/StructureDefinition/Extension-CareConnect-NHSNumberVerificationStatus-1">
						<valueCodeableConcept>
							<coding>
								<system value="https://fhir.hl7.org.uk/STU3/CareConnect-NHSNumberVerificationStatus-1"/>
								<code value="01"/>
								<display value="Number present and verified"/>
							</coding>
						</valueCodeableConcept>
					</extension>
					<system value="https://fhir.nhs.uk/Id/nhs-number"/>
					<value value="6101231234"/>
				</identifier>
				<name>
					<family value="JONES"/>
					<given value="Jack"/>
					<period>
						<start value="1918-02-01"/>
					</period>
				</name>
				<gender value="male"/>
				<deceasedDateTime value="2017-11-01T15:00:00+00:00"/>
				<address>
					<use value="home"/>
					<line value="4 Sandmoor Drive"/>
					<city value="LEEDS"/>
					<postalCode value="LS17 7DF"/>
				</address>
				<generalPractitioner>
					<reference value="urn:uuid:7b788347-493f-4e1b-9f0e-ed1ba218abb9"/>
					<display value="SHADWELL MEDICAL CENTRE"/>
				</generalPractitioner>
			</Patient>
		</resource>
	</entry>
	<!--Entry for organisation for current GP with ODS identifier for the primary care organisation with which the patient is registered (GP Practice code)-->
	<entry>
		<fullUrl value="urn:uuid:7b788347-493f-4e1b-9f0e-ed1ba218abb9"/>
		<resource>
			<Organization>
				<id value="7b788347-493f-4e1b-9f0e-ed1ba218abb9"/>
				<meta>
					<profile value="https://fhir.hl7.org.uk/STU3/StructureDefinition/CareConnect-Organization-1"/>
				</meta>
				<identifier>
					<system value="https://fhir.nhs.uk/Id/ods-site-code"/>
					<value value="B86056"/>
				</identifier>
				<name value="SHADWELL MEDICAL CENTRE"/>
				<partOf>
					<reference value="urn:uuid:de282fac-8d4d-432a-8683-f008485ae48c"/>
					<display value="NHS LEEDS NORTH CCG"/>
				</partOf>
			</Organization>
		</resource>
	</entry>
	<!--Entry for organisation with ODS identifier for the primary care organisation commissioning the care.-->
	<entry>
		<fullUrl value="urn:uuid:de282fac-8d4d-432a-8683-f008485ae48c"/>
		<resource>
			<Organization>
				<id value="de282fac-8d4d-432a-8683-f008485ae48c"/>
				<meta>
					<profile value="https://fhir.hl7.org.uk/STU3/StructureDefinition/CareConnect-Organization-1"/>
				</meta>
				<identifier>
					<system value="https://fhir.nhs.uk/Id/ods-organization-code"/>
					<value value="02V"/>
				</identifier>
				<name value="NHS LEEDS NORTH CCG"/>
			</Organization>
		</resource>
	</entry>
	<!--Entry for PDS death notification communication for the event message, with reference to subject-->
	<entry>
		<fullUrl value="urn:uuid:833a9a73-8f86-4f04-9a68-362052b7dca6"/>
		<resource>
			<Communication>
				<id value="833a9a73-8f86-4f04-9a68-362052b7dca6"/>
				<meta>
					<profile value="https://fhir.nhs.uk/STU3/StructureDefinition/EMS-PDS-PersonDeath-Communication-1"/>
				</meta>
				<extension url="https://fhir.nhs.uk/STU3/StructureDefinition/Extension-EMS-PDS-DeathCause-1">
					<extension url="deathCauseComment">
						<valueString value="Died of natural causes"/>
					</extension>
					<extension url="deathCauseIdentificationMethod">
						<valueCodeableConcept>
							<coding>
								<system value="https://fhir.nhs.uk/STU3/CodeSystem/EMS-PDS-DeathCauseIdentificationMethod-1"/>
								<code value="1"/>
								<display value="Death certificate"/>
							</coding>
						</valueCodeableConcept>
					</extension>
				</extension>
				<extension url="https://fhir.nhs.uk/STU3/StructureDefinition/Extension-EMS-PDS-DeathLocationType-1">
					<valueCodeableConcept>
						<coding>
							<system value="https://fhir.nhs.uk/STU3/CodeSystem/EMS-PDS-DeathLocationType-1"/>
							<code value="10"/>
							<display value="Hospital"/>
						</coding>
					</valueCodeableConcept>
				</extension>
				<status value="completed"/>
				<subject>
					<reference value="urn:uuid:dffd2ca0-dc21-11e7-9296-cec278b6b50a"/>
					<display value="JONES, Jack"/>
				</subject>
				<sent value="2018-02-01"/>
			</Communication>
		</resource>
	</entry>
</Bundle>
