{
  "resourceType": "Bundle",
  "id": "60fe6b0b-69f2-47d3-84a7-e3e5d0c5442a",
  "meta": {
    "profile": [
      "https://fhir.nhs.uk/STU3/StructureDefinition/EMS-Bundle-1"
    ]
  },
  "type": "message",
  "entry": [
    {
      "fullUrl": "urn:uuid:8bb85c96-d8b7-4995-94ed-72845b85cf14",
      "resource": {
        "resourceType": "MessageHeader",
        "id": "8bb85c96-d8b7-4995-94ed-72845b85cf14",
        "meta": {
          "profile": [
            "https://fhir.nhs.uk/STU3/StructureDefinition/EMS-MessageHeader-1"
          ]
        },
        "extension": [
          {
            "url": "https://fhir.nhs.uk/STU3/StructureDefinition/Extension-EMS-MessageEventType-1",
            "valueCodeableConcept": {
              "coding": [
                {
                  "system": "https://fhir.nhs.uk/STU3/CodeSystem/EMS-MessageEventType-1",
                  "code": "new",
                  "display": "New event message"
                }
              ]
            }
          }
        ],
        "event": {
          "system": "https://fhir.nhs.uk/STU3/CodeSystem/EMS-EventType-1",
          "code": "PDS001",
          "display": "PDS Change of GP"
        },
        "destination": [
          {
            "endpoint": "urn:nhs:addressing:asid:300000000161"
          }
        ],
        "timestamp": "2017-11-01T15:00:00+00:00",
        "source": {
          "endpoint": "477121000323"
        },
        "responsible": {
          "reference": "https://directory.spineservices.nhs.uk/STU3/Organization/X26",
          "display": "NHS DIGITAL"
        },
        "focus": [
          {
            "reference": "urn:uuid:16de978c-92c5-44da-8f28-0875e3cc30b4"
          }
        ]
      }
    },
    {
      "fullUrl": "urn:uuid:4245ffa6-5e9a-4e2e-9536-35d23f56a1e9",
      "resource": {
        "resourceType": "HealthcareService",
        "id": "4245ffa6-5e9a-4e2e-9536-35d23f56a1e9",
        "meta": {
          "profile": [
            "https://fhir.nhs.uk/STU3/StructureDefinition/EMS-HealthcareService-1"
          ]
        },
        "providedBy": {
          "reference": "https://directory.spineservices.nhs.uk/STU3/Organization/X26",
          "display": "NHS DIGITAL"
        },
        "type": [
          {
            "coding": [
              {
                "system": "https://fhir.nhs.uk/STU3/CodeSystem/EMS-HealthcareServiceType-1",
                "code": "PDS",
                "display": "Personal Demographics Service"
              }
            ]
          }
        ]
      }
    },
    {
      "fullUrl": "urn:uuid:ef928ae9-c961-46f1-9d4f-671f17adaa87",
      "resource": {
        "resourceType": "Communication",
        "id": "ef928ae9-c961-46f1-9d4f-671f17adaa87",
        "meta": {
          "profile": [
            "https://fhir.nhs.uk/STU3/StructureDefinition/EMS-Communication-1"
          ]
        },
        "status": "completed",
        "subject": {
          "reference": "urn:uuid:dffd2ca0-dc21-11e7-9296-cec278b6b50a",
          "display": "DAWKINS, Jack"
        },
        "payload": [
          {
            "contentReference": {
              "reference": "urn:uuid:dffd2ca0-dc21-11e7-9296-cec278b6b50a",
              "display": "DAWKINS, Jack"
            }
          }
        ]
      }
    },
    {
      "fullUrl": "urn:uuid:dffd2ca0-dc21-11e7-9296-cec278b6b50a",
      "resource": {
        "resourceType": "Patient",
        "id": "dffd2ca0-dc21-11e7-9296-cec278b6b50a",
        "meta": {
          "profile": [
            "https://fhir.nhs.uk/STU3/StructureDefinition/CareConnect-EMS-Patient-1"
          ]
        },
        "identifier": [
          {
            "extension": [
              {
                "url": "https://fhir.hl7.org.uk/STU3/StructureDefinition/Extension-CareConnect-NHSNumberVerificationStatus-1",
                "valueCodeableConcept": {
                  "coding": [
                    {
                      "system": "https://fhir.hl7.org.uk/STU3/CareConnect-NHSNumberVerificationStatus-1",
                      "code": "01",
                      "display": "Number present and verified"
                    }
                  ]
                }
              }
            ],
            "system": "https://fhir.nhs.uk/Id/nhs-number",
            "value": "9912003888"
          }
        ],
        "name": [
          {
            "use": "usual",
            "family": "DAWKINS",
            "given": [
              "Jack"
            ]
          }
        ],
        "gender": "male",
        "birthDate": "2017-10-02",
        "_birthDate": {
          "extension": [
            {
              "url": "http://hl7.org/fhir/StructureDefinition/patient-birthTime",
              "valueDateTime": "2017-10-02T20:12:00+00:00"
            }
          ]
        },
        "address": [
          {
            "use": "home",
            "line": [
              "4 Sandmoor Drive"
            ],
            "city": "LEEDS",
            "postalCode": "LS17 7DF"
          }
        ],
        "generalPractitioner": [
          {
            "reference": "urn:uuid:59a63170-b769-44f7-acb1-95cc3a0cb067",
            "display": "SHADWELL MEDICAL CENTRE"
          }
        ]
      }
    },
    {
      "fullUrl": "urn:uuid:59a63170-b769-44f7-acb1-95cc3a0cb067",
      "resource": {
        "resourceType": "Organization",
        "id": "59a63170-b769-44f7-acb1-95cc3a0cb067",
        "meta": {
          "profile": [
            "https://fhir.nhs.uk/STU3/StructureDefinition/CareConnect-Organization-1"
          ]
        },
        "identifier": [
          {
            "system": "https://fhir.nhs.uk/Id/ods-organization-code",
            "value": "B86056"
          }
        ],
        "name": "SHADWELL MEDICAL CENTRE",
        "partOf": {
          "reference": "https://directory.spineservices.nhs.uk/STU3/Organization/02V",
          "display": "NHS LEEDS NORTH CCG"
        }
      }
    },
    {
      "fullUrl": "urn:uuid:b13f45db-bd6d-48ef-bf30-3a4c0904a777",
      "resource": {
        "resourceType": "EpisodeOfCare",
        "id": "b13f45db-bd6d-48ef-bf30-3a4c0904a777",
        "meta": {
          "profile": [
            "https://fhir.nhs.uk/STU3/StructureDefinition/EMS-PDS-GPRegistration-EpisodeOfCare-1"
          ]
        },
        "extension": [
          {
            "url": "https://fhir.nhs.uk/STU3/StructureDefinition/Extension-PDS-SystemEffectivePeriod-1",
            "valuePeriod": {
              "start": "2017-10-10T15:00:00+00:00",
              "end": "2017-10-30T15:00:00+00:00"
            }
          }
        ],
        "status": "finished",
        "type": [
          {
            "coding": [
              {
                "system": "http://snomed.info/sct",
                "code": "408443003",
                "display": "General medical practice (qualifier value)"
              }
            ]
          }
        ],
        "patient": {
          "reference": "urn:uuid:dffd2ca0-dc21-11e7-9296-cec278b6b50a",
          "display": "DAWKINS, Jack"
        },
        "managingOrganization": {
          "reference": "urn:uuid:e84bfc04-2d79-451e-84ef-a50116506088",
          "display": "LIVERSEDGE MEDICAL CENTRE"
        },
        "period": {
          "start": "2017-10-09T15:00:00+00:00",
          "end": "2017-10-29T15:00:00+00:00"
        }
      }
    },
    {
      "fullUrl": "urn:uuid:e84bfc04-2d79-451e-84ef-a50116506088",
      "resource": {
        "resourceType": "Organization",
        "id": "e84bfc04-2d79-451e-84ef-a50116506088",
        "meta": {
          "profile": [
            "https://fhir.nhs.uk/STU3/StructureDefinition/CareConnect-Organization-1"
          ]
        },
        "identifier": [
          {
            "system": "https://fhir.nhs.uk/Id/ods-organization-code",
            "value": "B85612"
          }
        ],
        "name": "LIVERSEDGE MEDICAL CENTRE",
        "partOf": {
          "reference": "https://directory.spineservices.nhs.uk/STU3/Organization/03J",
          "display": "NHS NORTH KIRKLEES CCG"
        }
      }
    }
  ]
}