<?xml version="1.0" encoding="UTF-8"?>
<Bundle xmlns="http://hl7.org/fhir">
	<id value="ef6e30f1-5a42-4030-841b-edb864ffbb7b"/>
	<meta>
		<profile value="https://fhir.nhs.uk/STU3/StructureDefinition/DCH-Bundle-1"/>
	</meta>
	<type value="message"/>
	<entry>
		<fullUrl value="urn:uuid:ef6e30f1-5a42-4030-841b-edb864ffbb7b"/>
		<resource>
			<MessageHeader>
				<id value="ef6e30f1-5a42-4030-841b-edb864ffbb7b"/>
				<meta>
					<versionId value="1"/>
					<profile value="https://fhir.nhs.uk/STU3/StructureDefinition/Event-MessageHeader-1"/>
				</meta>
				<extension url="https://fhir.nhs.uk/STU3/StructureDefinition/Extension-MessageEventType-1">
					<valueCodeableConcept>
						<coding>
							<system value="https://fhir.nhs.uk/STU3/CodeSystem/MessageEventType-1"/>
							<code value="new"/>
							<display value="New event message"/>
						</coding>
					</valueCodeableConcept>
				</extension>
				<event>
					<system value="https://fhir.nhs.uk/STU3/CodeSystem/EventType-1"/>
					<code value="additional-demographics-1"/>
					<display value="Additional Demographics"/>
				</event>
				<timestamp value="2017-11-01T15:00:00+00:00"/>
				<source>
					<endpoint value="urn:nhs-uk:addressing:ods:A83627"/>
				</source>
				<responsible>
					<reference value="urn:uuid:3ff6d789-af64-4d9c-aa1d-0087d29e9e1c"/>
					<display value="SILVERDALE FAMILY PRACTICE"/>
				</responsible>
				<focus>
					<reference value="urn:uuid:12779557-9033-4213-876f-69a670cdf35d"/>
				</focus>
			</MessageHeader>
		</resource>
	</entry>
	<!--Responsible Org-->
	<entry>
		<fullUrl value="urn:uuid:3ff6d789-af64-4d9c-aa1d-0087d29e9e1c"/>
		<resource>
			<Organization>
				<id value="3ff6d789-af64-4d9c-aa1d-0087d29e9e1c"/>
				<meta>
					<profile value="https://fhir.hl7.org.uk/STU3/StructureDefinition/CareConnect-Organization-1"/>
				</meta>
				<identifier>
					<system value="https://fhir.nhs.uk/Id/ods-organization-code"/>
					<value value="A83627"/>
				</identifier>
				<name value="SILVERDALE FAMILY PRACTICE"/>
				<address>
					<line value="FRONT STREET"/>
					<line value="SOUTH HETTON"/>
					<city value="DURHAM"/>
					<district value="COUNTY DURHAM"/>
					<postalCode value="DH6 2TH"/>
				</address>
			</Organization>
		</resource>
	</entry>
	<!--Healthcare service used e.g GP, trust, etc..-->
	<entry>
		<fullUrl value="urn:uuid:47032621-220a-433e-9b64-94056e988730"/>
		<resource>
			<HealthcareService>
				<id value="47032621-220a-433e-9b64-94056e988730"/>
				<meta>
					<profile value="https://fhir.nhs.uk/STU3/StructureDefinition/CareConnect-HealthcareService-1"/>
				</meta>
				<providedBy>
					<reference value="urn:uuid:3ff6d789-af64-4d9c-aa1d-0087d29e9e1c"/>
					<display value="SILVERDALE FAMILY PRACTICE"/>
				</providedBy>
				<type>
					<coding>
						<system value="http://snomed.info/sct"/>
						<code value="1060971000000108"/>
						<display value="General practice service"/>
					</coding>
				</type>
				<location>
					<reference value="urn:uuid:e3177167-40fc-4f1a-80f2-a2f17f18fde7"/>
				</location>
				<telecom>
					<system value="phone"/>
					<value value="0191 1231234"/>
				</telecom>
			</HealthcareService>
		</resource>
	</entry>
	<!-- Patient-->
	<entry>
		<fullUrl value="urn:uuid:5d5845f3-398f-474b-af59-14882fc7b0ca"/>
		<resource>
			<Patient>
				<id value="5d5845f3-398f-474b-af59-14882fc7b0ca"/>
				<meta>
					<profile value="https://fhir.nhs.uk/STU3/StructureDefinition/CareConnect-Patient-1"/>
				</meta>
				<identifier>
					<extension url="https://fhir.hl7.org.uk/STU3/StructureDefinition/Extension-CareConnect-NHSNumberVerificationStatus-1">
						<valueCodeableConcept>
							<coding>
								<system value="https://fhir.hl7.org.uk/STU3/CodeSystem/CareConnect-NHSNumberVerificationStatus-1"/>
								<code value="01"/>
								<display value="Number present and verified"/>
							</coding>
						</valueCodeableConcept>
					</extension>
					<system value="https://fhir.nhs.uk/Id/nhs-number"/>
					<value value="9912003888"/>
				</identifier>
				<name>
					<use value="official"/>
					<family value="DAWKINS"/>
					<given value="Jack"/>
				</name>
				<birthDate value="2013-10-12">
					<extension url="http://hl7.org/fhir/StructureDefinition/patient-birthTime">
						<valueDateTime value="2017-10-02T12:00:00+00:00"/>
					</extension>
				</birthDate>
			</Patient>
		</resource>
	</entry>
	<!--Additional Demographics Encounter details-->
	<entry>
		<fullUrl value="urn:uuid:12779557-9033-4213-876f-69a670cdf35d"/>
		<resource>
			<Encounter>
				<id value="12779557-9033-4213-876f-69a670cdf35d"/>
				<meta>
					<profile value="https://fhir.nhs.uk/STU3/StructureDefinition/CareConnect-Encounter-1"/>
				</meta>
				<status value="finished"/>
				<subject>
					<reference value="urn:uuid:5d5845f3-398f-474b-af59-14882fc7b0ca"/>
					<display value="DAWKINS, Jack"/>
				</subject>
				<period>
					<start value="2017-10-01"/>
				</period>
				<location>
					<location>
						<reference value="urn:uuid:e3177167-40fc-4f1a-80f2-a2f17f18fde7"/>
						<display value="SILVERDALE FAMILY PRACTICE"/>
					</location>
				</location>
				<serviceProvider>
					<reference value="urn:uuid:3ff6d789-af64-4d9c-aa1d-0087d29e9e1c"/>
					<display value="SILVERDALE FAMILY PRACTICE"/>
				</serviceProvider>
			</Encounter>
		</resource>
	</entry>
	<!--Location where event took place-->
	<entry>
		<fullUrl value="urn:uuid:e3177167-40fc-4f1a-80f2-a2f17f18fde7"/>
		<resource>
			<Location>
				<id value="e3177167-40fc-4f1a-80f2-a2f17f18fde7"/>
				<meta>
					<profile value="https://fhir.hl7.org.uk/STU3/StructureDefinition/CareConnect-Location-1"/>
				</meta>
				<identifier>
					<system value="https://fhir.nhs.uk/Id/ods-site-code"/>
					<value value="A83627"/>
				</identifier>
				<name value="SILVERDALE FAMILY PRACTICE"/>
			</Location>
		</resource>
	</entry>
</Bundle>
