<?xml version="1.0" encoding="UTF-8"?>
<!--This xml example is for illustrative purposes only and has not been clinically verified-->
<Bundle xmlns="http://hl7.org/fhir" xmlns:xsi="http://www.w3.org/2001/XMLSchema-instance" xsi:schemaLocation="http://hl7.org/fhir file:///C:/GitHubRepo/ITK-FHIR-Outpatient-Letter/schemas/bundle.xsd">
 <id value="56cda0f0-d663-482c-944d-0ff8bf804d46"/>
 <meta>
  <profile value="https://fhir.nhs.uk/STU3/StructureDefinition/ITK-Document-Bundle-1"/>
 </meta>
 <identifier>
  <system value="https://tools.ietf.org/html/rfc4122"/>
  <value value="fc09b056-a869-41c3-ad7b-b2074c3d97b6"/>
 </identifier>
 <type value="document"/>
 <!--Outpatient Letter Composition-->
 <entry>
  <fullUrl value="urn:uuid:17e783b1-8fe0-4846-957e-e3ada2559762"/>
  <resource>
   <Composition>
    <id value="17e783b1-8fe0-4846-957e-e3ada2559762"/>
    <meta>
     <profile value="https://fhir.nhs.uk/STU3/StructureDefinition/ITK-OPL-Composition-1"/>
    </meta>
    <!-- Information Recipient 1 - the patient-->
    <extension url="https://fhir.nhs.uk/STU3/StructureDefinition/Extension-ITK-InformationRecipient-1">
     <valueReference>
      <reference value="urn:uuid:29995d4a-1ba7-404d-b161-86670848675b"/>
     </valueReference>
    </extension>
    <!-- Information Recipient 2 - the patient's GP -->
    <extension url="https://fhir.nhs.uk/STU3/StructureDefinition/Extension-ITK-InformationRecipient-1">
     <valueReference>
      <reference value="urn:uuid:137bc838-e3ab-4eb2-99e9-32b0c02e70eb"/>
     </valueReference>
    </extension>
    <!-- Care Setting Type -->
    <extension url="https://fhir.nhs.uk/STU3/StructureDefinition/Extension-ITK-CareSettingType-1">
     <valueCodeableConcept>
      <coding>
       <system value="http://snomed.info/sct"/>
       <code value="700433006"/>
       <display value="Gastroenterology service"/>
      </coding>
     </valueCodeableConcept>
    </extension>
    <identifier>
     <value value="88f3e08a-4f29-4132-80dd-ce41a2efb2da"/>
    </identifier>
    <status value="final"/>
    <type>
     <!--Outpatient letter -->
     <coding>
      <system value="http://snomed.info/sct"/>
      <code value="823681000000100"/>
      <display value="Outpatient letter"/>
     </coding>
    </type>
    <subject>
     <reference value="urn:uuid:29995d4a-1ba7-404d-b161-86670848675b"/>
    </subject>
    <encounter>
     <reference value="urn:uuid:a7b5ce52-314f-4b82-a131-6ab90d435d30"/>
    </encounter>
    <!--The composition editing time, when the composition was last logically changed by the author.-->
    <date value="2017-05-01T16:42:00+00:00"/>
    <!--Identifies who is responsible for the information in the composition, not necessarily who typed it in-->
    <author>
     <reference value="urn:uuid:c945c0a4-d63b-4cda-9299-12fe20524adc"/>
    </author>
    <title value="Outpatient letter"/>
    <!--The code specifying the level of confidentiality of the Composition.-->
    <confidentiality value="V"/>
    <!--Identifies the organization responsible for ongoing maintenance of and access to the composition/document information.-->
    <custodian>
     <reference value="urn:uuid:2fc51c08-3de9-4557-bc0e-9738be9fa99c"/>
    </custodian>
    <!--Attendance details section-->
    <section>
     <title value="Attendance details"/>
     <code>
      <coding>
       <system value="http://snomed.info/sct"/>
       <code value="1077881000000105"/>
       <display value="Attendance details"/>
      </coding>
     </code>
     <text>
      <status value="generated"/>
      <div xmlns="http://www.w3.org/1999/xhtml">
       <table width="100%">
        <tbody>
        <tr>
          <td colspan="2" style="width:100%">Dear Dr. O'Reilly, <br/>Thank you for referring Ms. Critchard to the gastroenterology outpatient clinic.<br /></td>
         </tr>
         <tr>
          <th>Date of appointment/contact</th>
          <td>01 May 2017</td>
         </tr>
         <tr>
          <th>Contact type</th>
          <td>First attendance face to face</td>
         </tr>
         <tr>
          <th>Consultation method</th>
          <td>Face-to-face</td>
         </tr>
         <tr>
          <th>Responsible healthcare professional</th>
          <td>Dr. Ruth Jones (Consultant Gastroenterologist)</td>
         </tr>
         <tr>
          <th>Seen by</th>
          <td>
           <p>Dr. Ruth Jones</p>
           <p>Role: Consultant Gastroenterologist</p>
           <p>Tel: (01234) 562170</p>
          </td>
         </tr>
         <tr>
          <th>Service</th>
          <td>Gastroenterology</td>
         </tr>
         <tr>
          <th>Outcome of patient attendance</th>
          <td>Appointment to be made at a later date</td>
         </tr>
         <tr>
          <th>Care professionals present</th>
          <td>Mrs. N Bryant (IBD Specialist Nurse)</td>
         </tr>
        </tbody>
       </table>
      </div>
     </text>
     <orderedBy>
      <coding>
       <system value="http://hl7.org/fhir/list-order"/>
       <code value="system"/>
       <display value="Sorted by System"/>
      </coding>
     </orderedBy>
     <entry>
      <reference value="urn:uuid:a7b5ce52-314f-4b82-a131-6ab90d435d30"/>
     </entry>
    </section>
<!--Referrer details-->     
<section>
     <title value="Referrer details"/>
     <code>
      <coding>
       <system value="http://snomed.info/sct"/>
       <code value="1052891000000108"/>
       <display value="Referrer details"/>
      </coding>
     </code>
     <text>
      <status value="generated"/>
      <div xmlns="http://www.w3.org/1999/xhtml">
       <table width="100%">
        <tbody>
         <tr>
          <th>Referrer Name</th>
          <td>
           <p>Dr. C. O'Reilly</p>
           <p>Role: GP</p>
           <p>Tel: (01234) 956412</p>
           <p>Organisation: Canvas Health Centre, 27 Acacia Road, BM9 6PM</p>
          </td>
         </tr>
        </tbody>
       </table>
      </div>
     </text>
    </section>
       <!--Diagnoses-->
    <section>
     <title value="Diagnoses"/>
     <code>
      <coding>
       <system value="http://snomed.info/sct"/>
       <code value="887161000000102"/>
       <display value="Diagnoses"/>
      </coding>
     </code>
     <text>
      <status value="generated"/>
      <div xmlns="http://www.w3.org/1999/xhtml">
      <table>
        <tbody>
         <tr>
          <th>Diagnosis</th>
          <td><p>1. Proctitis</p><p>2. Dyspepsia</p></td>
         </tr>
         </tbody>
       </table>
      </div>
     </text>
     <orderedBy>
      <coding>
       <system value="http://hl7.org/fhir/list-order"/>
       <code value="system"/>
       <display value="Sorted by System"/>
      </coding>
     </orderedBy>
     	<entry>
						<reference value="urn:uuid:50141d4f-fe5a-4616-ab9e-9b0366333ea0"/>
					</entry>
					<entry>
						<reference value="urn:uuid:7ec3effa-da14-47c7-881f-0b04903861c6"/>
					</entry>
    </section>
       <!--Problems and issues-->
    <section>
     <title value="Problems and issues"/>
     <code>
      <coding>
       <system value="http://snomed.info/sct"/>
       <code value="887151000000100"/>
       <display value="Problems and issues"/>
      </coding>
     </code>
     <text>
      <status value="generated"/>
      <div xmlns="http://www.w3.org/1999/xhtml">
       <table width="100%">
        <tbody>
         <tr>
          <th>Problems and issues</th>
          <td><p>1. Bloody diarrhoea</p><p>2. Weight loss</p></td>
         </tr>
        </tbody>
       </table>
      </div>
     </text>
    </section>
        <!--History-->
    <section>
     <title value="History"/>
     <code>
      <coding>
       <system value="http://snomed.info/sct"/>
       <code value="717121000000105"/>
       <display value="History"/>
      </coding>
     </code>
     <text>
      <status value="generated"/>
      <div xmlns="http://www.w3.org/1999/xhtml">
       <table width="100%">
        <tbody>
         <tr>
          <th>History</th>
         </tr>
         <tr>
          <td>Ms. Critchard presents with ongoing symptoms of bloody diarrhoea, weight loss, and abdominal discomfort that are unresponsive to treatment. She has a 2 month history of bloody diarrhoea. Her bowels open 5-6 per day with 1-2 nocturnal episodes. Ms. Critchard has experienced weight loss of 1 stone over the same period. She experiences a crampy left iliac fossa pain intermittently. <br/>She has no history of travel, unwell contacts or previous similar symptoms. She has longstanding mild dyspepsia for which she takes antacid as necessary. It has never been investigated.</td>
         </tr>
        </tbody>
       </table>
      </div>
     </text>
      <orderedBy>
      <coding>
       <system value="http://hl7.org/fhir/list-order"/>
       <code value="system"/>
       <display value="Sorted by System"/>
      </coding>
     </orderedBy>
     <!--References to supporting Condition/Observations resources-->
     	<entry>
     	<reference value="urn:uuid:0547e6bf-7205-4f78-82ef-99c69ac34def"/>
					</entry>
					<entry>
						<reference value="urn:uuid:163c7e94-eb55-40fe-a9d3-5245b4e33541"/>
					</entry>
						<entry>
						<reference value="urn:uuid:75117a4d-8f9c-4d3a-be57-c55d59b993e8"/>
					</entry>
								<entry>
						<reference value="urn:uuid:ed66558d-d668-453a-95fe-067fffa4cbd2"/>
					</entry>
						<entry>
						<reference value="urn:uuid:dadd9c9d-74f8-45e0-90dc-6ff8c91b8651"/>
					</entry>
					<entry>
						<reference value="urn:uuid:90d887ab-7db4-4235-bada-3ae2e31f8c74"/>
					</entry>
    </section>
        <!--Family history-->
    <section>
     <title value="Family history"/>
     <code>
      <coding>
       <system value="http://snomed.info/sct"/>
       <code value="887111000000104"/>
       <display value="Family history"/>
      </coding>
     </code>
     <text>
      <status value="generated"/>
      <div xmlns="http://www.w3.org/1999/xhtml">
       <table width="100%">
        <tbody>
         <tr>
          <th>Family history</th>
         </tr>
         <tr>
          <td>Ms. Critchard has no family history of I.B.D. </td>
         </tr>
        </tbody>
       </table>
      </div>
     </text>
    </section>
        <!--Social context-->
    <section>
     <title value="Social context"/>
     <code>
      <coding>
       <system value="http://snomed.info/sct"/>
       <code value="887051000000101"/>
       <display value="Social context"/>
      </coding>
     </code>
     <text>
      <status value="generated"/>
      <div xmlns="http://www.w3.org/1999/xhtml">
       <table width="100%">
        <tbody>
         <tr>
          <th>Household composition</th>
          <td>Ms. Critchard lives with her boyfriend.</td>
         </tr>
          <tr>
          <th>Occupational history</th>
          <td>Ms. Critchard works as a Baker.</td>
         </tr>
              <tr>
          <th>Smoking</th>
          <td>She is an ex-smoker, stopped 2 years.</td>
         </tr>
         <tr>
          <th>Alcohol intake</th>
          <td>She consumed 10-14 units of alcohol per week.</td>
         </tr>
        </tbody>
       </table>
      </div>
     </text>
        <orderedBy>
      <coding>
       <system value="http://hl7.org/fhir/list-order"/>
       <code value="system"/>
       <display value="Sorted by System"/>
      </coding>
     </orderedBy>
     <!--References to supporting Observation resources-->
     	<entry>
     	<reference value="urn:uuid:654ca509-6dbf-497c-8f6f-02dd46cc5946"/>
					</entry>
    </section>
    <!--Allergies and adverse reactions-->
    <section>
     <title value="Allergies and adverse reactions"/>
     <code>
      <coding>
       <system value="http://snomed.info/sct"/>
       <code value="886921000000105"/>
       <display value="Allergies and adverse reactions"/>
      </coding>
     </code>
     <text>
      <status value="generated"/>
      <div xmlns="http://www.w3.org/1999/xhtml">
       <table width="100%">
        <tbody>
         <tr>
          <th>Causative agent</th>
          <td>Amoxicillin</td>
         </tr>
         <tr>
          <th>Description of reaction</th>
          <td>Ms. Critchard has an allergic reaction to Amoxicillin, which presents as an urticarial rash in the form of a generalized severe rash.</td>
         </tr>
         <tr>
          <th>Probability of recurrence</th>
          <td>She first experienced a reaction aged 12 and probability of recurrence is likely.</td>
         </tr>
        </tbody>
       </table>
      </div>
     </text>
     <orderedBy>
      <coding>
       <system value="http://hl7.org/fhir/list-order"/>
       <code value="system"/>
       <display value="Sorted by System"/>
      </coding>
     </orderedBy>
     <entry>
      <reference value="urn:uuid:627bd799-7a86-40bd-a931-d8526b412fa5"/>
     </entry>
    </section>
        <!--Examination findings-->
    <section>
     <title value="Examination findings"/>
     <code>
      <coding>
       <system value="http://snomed.info/sct"/>
       <code value="715851000000102"/>
       <display value="Examination findings"/>
      </coding>
     </code>
     <text>
      <status value="generated"/>
      <div xmlns="http://www.w3.org/1999/xhtml">
       <table width="100%">
        <tbody>
         <tr>
          <th>Examination findings</th>
         </tr>
         <tr>
          <td>The abdomen was found to be soft but mainly tender in the left iliac fossa. There was no guarding or rebound and bowel sounds normal.</td>
         </tr>
        </tbody>
       </table>
      </div>
     </text>
      <orderedBy>
      <coding>
       <system value="http://hl7.org/fhir/list-order"/>
       <code value="system"/>
       <display value="Sorted by System"/>
      </coding>
     </orderedBy>
     <!--Supporting Observation/Condition resources-->
     <entry>
      <reference value="urn:uuid:10e3e7dc-2df4-49af-92f7-e3050ad0c06b"/>
     </entry>
        <entry>
      <reference value="urn:uuid:c96f3f4a-c11c-4606-8d45-70f487910fe7"/>
     </entry>
        <entry>
      <reference value="urn:uuid:3459f067-793b-4afb-bc23-cbe3cac4243f"/>
     </entry>
    </section>
        <!--Investigation results-->
<section>
     <title value="Investigation results"/>
     <code>
      <coding>
       <system value="http://snomed.info/sct"/>
        <code value="1082101000000102"/>
       <display value="Investigation results"/>
      </coding>
     </code>
     <text>
      <status value="generated"/>
      <div xmlns="http://www.w3.org/1999/xhtml">
       <table width="100%">
        <tbody>
         <tr>
          <th>Investigation result</th>
         </tr>
         <tr>
          <td>Facael calprotein levels were 247mcg/g faeces (normal 50)</td>
         </tr>
        </tbody>
       </table>
      </div>
     </text>
       <orderedBy>
      <coding>
       <system value="http://hl7.org/fhir/list-order"/>
       <code value="system"/>
       <display value="Sorted by System"/>
      </coding>
     </orderedBy>
     <!--Supporting Procedure resources-->
     <entry>
      <reference value="urn:uuid:6089964b-ca35-4067-a9ff-d954e3694ed5"/>
     </entry>
    </section>
        <!--Procedure-->
    <section>
     <title value="Procedures"/>
     <code>
      <coding>
       <system value="http://snomed.info/sct"/>
       <code value="887171000000109"/>
       <display value="Procedures"/>
      </coding>
     </code>
     <text>
      <status value="generated"/>
      <div xmlns="http://www.w3.org/1999/xhtml">
       <table width="100%">
        <tbody>
         <tr>
          <th>Procedure</th>
         </tr>
         <tr>
          <td>A Rigid sigmoidoscopy was performed to the limit of view at 20cm. It showed inflamed and ulcerated mucosa with contact bleeding to about 15cm. Proximally appears to improve.</td>
         </tr>
        </tbody>
       </table>
      </div>
     </text>
     <orderedBy>
      <coding>
       <system value="http://hl7.org/fhir/list-order"/>
       <code value="system"/>
       <display value="Sorted by System"/>
      </coding>
     </orderedBy>
     <!--Supporting Procedure resource(s)-->
     <entry>
      <reference value="urn:uuid:c3f61107-b238-43a0-b176-207b4fff9801"/>
     </entry>
    </section>
    <!--Clinical summary-->
    <section>
     <title value="Clinical summary"/>
     <code>
      <coding>
       <system value="http://snomed.info/sct"/>
       <code value="887181000000106"/>
       <display value="Clinical summary"/>
      </coding>
     </code>
     <text>
      <status value="generated"/>
      <div xmlns="http://www.w3.org/1999/xhtml">
       <table width="100%">
        <tbody>
         <tr>
          <th>Clinical Summary</th>
         </tr>
         <tr>
          <td>Findings are suggestive of IBD. Rigid sigmoidoscopy looks like UC. 5ASA treatment commenced today pending further investigation.</td>
         </tr>
        </tbody>
       </table>
      </div>
     </text>
    </section>
     <!--Plan and requested actions-->
    <section>
     <title value="Plan and requested actions"/>
     <code>
      <coding>
       <system value="http://snomed.info/sct"/>
       <code value="887201000000105"/>
       <display value="Plan and requested actions"/>
      </coding>
     </code>
     <text>
      <status value="generated"/>
      <div xmlns="http://www.w3.org/1999/xhtml">
       <table width="100%">
        <tbody>
         <tr>
           <th>Plan and requested actions for healthcare professionals</th>
           </tr>
           <tr>
          <td>A flexible sigmoidoscopy has been Requested on an urgent basis by Ruth Jones on 01/05/17. FBC, U and E, LFT and CRP are to be measured, the patient was provided with a form at the appointment. 
										Stool MC and S plus C. diff are to be taken, the patient was given forms and collections points at the appointment.</td>
         </tr>
        </tbody>
       </table>
      </div>
     </text>
    </section>
    <!--Medication-->
    <section>
     <title value="Medications and medical devices"/>
     <code>
      <coding>
       <system value="http://snomed.info/sct"/>
       <code value="933361000000108"/>
       <display value="Medications and medical devices"/>
      </coding>
     </code>
     <text>
      <status value="generated"/>
      <div xmlns="http://www.w3.org/1999/xhtml">
       <table width="100%">
        <tbody>
         <tr>
            <td colspan="2" style="width:100%">(only changes to medications and medical devices as a result of the outpatient encounter are included)</td>
         </tr>
          <tr>
          <th>Medication name</th>
          <td>Asacol</td>
         </tr>
              <tr>
          <th>Route</th>
          <td>Oral</td>
         </tr>
           <tr>
          <th>Dose</th>
          <td>3x800mg tablets</td>
         </tr>
         <tr>
          <th>Medication frequency</th>
          <td>Once a day as 3x800mg tablets. A 14xday course was prescribed in clinic.</td>
         </tr>
             <tr>
          <th>Reason for medication</th>
          <td>It is expected that this will aid symptom management.</td>
         </tr>
            <tr>
          <th>Medication recommendations</th>
          <td>A 14xday course was prescribed in clinic, please renew in 2xweeks time.</td>
         </tr>
         </tbody>
       </table>
       <br/>
      </div>
     </text>
     <orderedBy>
      <coding>
       <system value="http://hl7.org/fhir/list-order"/>
       <code value="system"/>
       <display value="Sorted by System"/>
      </coding>
     </orderedBy>
     <entry>
						<reference value="urn:uuid:cef7f8d5-78e3-4866-89f1-62470d6fd636"/>
						</entry>
    </section>
        <section>
     <title value="Person completing record"/>
     <code>
      <coding>
       <system value="http://snomed.info/sct"/>
       <code value="887231000000104"/>
       <display value="Person completing record"/>
      </coding>
     </code>
     <text>
      <status value="generated"/>
      <div xmlns="http://www.w3.org/1999/xhtml">
       <table width="100%">
        <tbody>
         <tr>
          <th>Name</th>
          <td>Dr. Ruth Jones</td>
         </tr>
         <tr>
          <th>Role</th>
          <td>Consultant Gastroenterologist</td>
         </tr>
         <tr>
          <th>Specialty</th>
          <td>Gastroenterology</td>
         </tr>
         <tr>
          <th>Professional identifier</th>
          <td>6775555</td>
         </tr>
         <tr>
          <th>Date and time completed</th>
          <td>01 May 2017 16:42</td>
         </tr>
         <tr>
          <th>Contact details</th>
          <td>Tel: (01234) 562170</td>
         </tr>
        </tbody>
       </table>
      </div>
     </text>
    </section>
   </Composition>
  </resource>
 </entry>
 <!--Encounter Example 1-->
 <entry>
  <fullUrl value="urn:uuid:a7b5ce52-314f-4b82-a131-6ab90d435d30"/>
  <resource>
   <Encounter>
    <id value="a7b5ce52-314f-4b82-a131-6ab90d435d30"/>
    <meta>
     <profile value="https://fhir.nhs.uk/STU3/StructureDefinition/CareConnect-ITK-Encounter-1"/>
    </meta>
    <identifier>
     <system value="https://tools.ietf.org/html/rfc4122"/>
     <value value="85e88b9f-c6be-4d09-ae48-f4fa6687903d"/>
    </identifier>
    <status value="finished"/>
    <class>
     <system value="http://hl7.org/fhir/v3-ActEncounterCode"/>
     <code value="AMB"/>
     <display value="ambulatory"/>
    </class>
    <!--Specific type of encounter-->
    <type>
     <coding>
      <system value="http://snomed.info/sct"/>
      <code value="163381000000105"/>
      <display value="Outpatient Clinic Attendance"/>
     </coding>
    </type>
    <subject>
     <reference value="urn:uuid:29995d4a-1ba7-404d-b161-86670848675b"/>
    </subject>
    <!--Reference to the participants present during the encounter-->
    <participant>
     <type>
      <coding>
       <system value="http://hl7.org/fhir/v3/ParticipationType"/>
       <code value="ATND"/>
       <display value="attender"/>
      </coding>
     </type>
     <individual>
      <reference value="urn:uuid:c945c0a4-d63b-4cda-9299-12fe20524adc"/>
     </individual>
    </participant>
    <participant>
     <type>
      <coding>
       <system value="http://hl7.org/fhir/v3/ParticipationType"/>
       <code value="SPRF"/>
       <display value="secondary performer"/>
      </coding>
     </type>
     <individual>
      <reference value="urn:uuid:8ece9986-9af0-4882-b0cf-23a96ea7b509"/>
     </individual>
    </participant>
    <period>
     <start value="2017-05-01T09:00:00+00:00"/>
     <end value="2017-05-01T09:45:00+00:00"/>
    </period>
    <!--	The list of diagnoses relevant to this encounter-->
    <diagnosis>
     <condition>
      <reference value="urn:uuid:50141d4f-fe5a-4616-ab9e-9b0366333ea0"/>
     </condition>
    </diagnosis>
    <diagnosis>
     <condition>
      <reference value="urn:uuid:7ec3effa-da14-47c7-881f-0b04903861c6"/>
     </condition>
    </diagnosis>
    <hospitalization>
     <admitSource>
      <coding>
       <system value="http://hl7.org/fhir/admit-source"/>
       <code value="gp"/>
       <display value="General Practitioner referral"/>
      </coding>
     </admitSource>
     <dischargeDisposition>
      <coding>
       <system value="http://hl7.org/fhir/discharge-disposition"/>
       <code value="home"/>
       <display value="Home"/>
      </coding>
     </dischargeDisposition>
    </hospitalization>
    <location>
     <location>
      <reference value="urn:uuid:01bb1ccc-577b-4a4a-9fb0-9c8fe9f21fa3"/>
     </location>
    </location>
   </Encounter>
  </resource>
 </entry>
 <!--Allergies List-->
 <entry>
  <fullUrl value="urn:uuid:627bd799-7a86-40bd-a931-d8526b412fa5"/>
  <resource>
   <List>
    <id value="627bd799-7a86-40bd-a931-d8526b412fa5"/>
    <meta>
     <profile value="https://fhir.nhs.uk/STU3/StructureDefinition/ITK-Allergies-List-1"/>
    </meta>
    <identifier>
     <system value="https://tools.ietf.org/html/rfc4122"/>
     <value value="9ca85d9b-c54c-4134-8fcc-3552796c7340"/>
    </identifier>
    <status value="current"/>
    <mode value="snapshot"/>
       <code>
     <coding>
      <system value="http://hl7.org/fhir/list-example-use-codes"/>
      <code value="allergies"/>
      <display value="Allergies"/>
     </coding>
    </code>
    <subject>
     <reference value="urn:uuid:29995d4a-1ba7-404d-b161-86670848675b"/>
    </subject>
    <encounter>
     <reference value="urn:uuid:a7b5ce52-314f-4b82-a131-6ab90d435d30"/>
    </encounter>
    <entry>
     <flag>
      <coding>
       <system value="https://fhir.nhs.uk/STU3/ITK-PatientAllergyChangeType-1"/>
       <code value="01"/>
       <display value="Unchanged"/>
      </coding>
     </flag>
     <item>
      <reference value="urn:uuid:bae93050-79ec-45c6-9e3e-023593b06641"/>
     </item>
    </entry>
   </List>
  </resource>
 </entry>
 <!--Allergy Intolerance Example 1-->
 <entry>
  <fullUrl value="urn:uuid:bae93050-79ec-45c6-9e3e-023593b06641"/>
  <resource>
   <AllergyIntolerance>
    <id value="bae93050-79ec-45c6-9e3e-023593b06641"/>
    <meta>
     <profile value="https://fhir.hl7.org.uk/STU3/StructureDefinition/CareConnect-AllergyIntolerance-1"/>
    </meta>
    <extension url="https://fhir.hl7.org.uk/STU3/StructureDefinition/Extension-CareConnect-ProbabilityOfRecurrence-1">
     <valueString value="Likely"/>
    </extension>
    <identifier>
     <system value="https://tools.ietf.org/html/rfc4122"/>
     <value value="9334f90a-7f48-453b-aaa6-7a7a42b8e7a8"/>
    </identifier>
    <clinicalStatus value="active"/>
    <verificationStatus value="confirmed"/>
    <type value="allergy"/>
    <category value="medication"/>
    <patient>
     <reference value="urn:uuid:29995d4a-1ba7-404d-b161-86670848675b"/>
    </patient>
    <onsetDateTime value="1976-03-12"/>
    <reaction>
     <substance>
      <coding>
       <system value="http://snomed.info/sct"/>
       <code value="372687004"/>
       <display value="Amoxicillin"/>
      </coding>
     </substance>
     <manifestation>
      <coding>
       <system value="http://snomed.info/sct"/>
       <code value="247472004"/>
       <display value="Urticarial rash"/>
      </coding>
     </manifestation>
    </reaction>
   </AllergyIntolerance>
  </resource>
 </entry>
 <!--Allergy Flag Example 1-->
 <entry>
  <fullUrl value="urn:uuid:61be6900-bc3c-4a28-96dc-746381b7c1be"/>
  <resource>
   <Flag>
    <id value="61be6900-bc3c-4a28-96dc-746381b7c1be"/>
    <meta>
     <profile value="https://fhir.nhs.uk/STU3/StructureDefinition/ITK-Allergy-Flag-1"/>
    </meta>
    <extension url="https://fhir.nhs.uk/STU3/StructureDefinition/Extension-ITK-AllergyFlagDetail-1">
     <valueReference>
      <reference value="urn:uuid:bae93050-79ec-45c6-9e3e-023593b06641"/>
     </valueReference>
    </extension>
    <identifier>
     <system value="https://tools.ietf.org/html/rfc4122"/>
     <value value="e90bfad6-aa90-45ec-8855-29eb20d9fcae"/>
    </identifier>
    <status value="active"/>
    <category>
     <coding>
      <system value="http://snomed.info/sct"/>
      <code value="886921000000105"/>
      <display value="Allergies and adverse reactions"/>
     </coding>
    </category>
    <code>
     <coding>
      <system value="http://snomed.info/sct"/>
      <code value="416098002"/>
      <display value="Drug allergy"/>
     </coding>
    </code>
    <subject>
     <reference value="urn:uuid:29995d4a-1ba7-404d-b161-86670848675b"/>
    </subject>
   </Flag>
  </resource>
 </entry>
 <!--Condition 1-->
 <entry>
  <fullUrl value="urn:uuid:50141d4f-fe5a-4616-ab9e-9b0366333ea0"/>
  <resource>
   <Condition>
    <id value="50141d4f-fe5a-4616-ab9e-9b0366333ea0"/>
    <meta>
     <profile value="https://fhir.nhs.uk/STU3/StructureDefinition/CareConnect-ITK-Condition-1"/>
    </meta>
    <identifier>
     <system value="https://tools.ietf.org/html/rfc4122"/>
     <value value="369b5cdc-b0aa-4175-8918-9af81651e613"/>
    </identifier>
    <clinicalStatus value="active"/>
    <verificationStatus value="confirmed"/>
    <category>
     <coding>
      <system value="https://fhir.hl7.org.uk/STU3/CareConnect-ConditionCategory-1"/>
      <code value="diagnosis"/>
      <display value="Diagnosis"/>
     </coding>
    </category>
    <code>
     <coding>
      <system value="http://snomed.info/sct"/>
      <code value="3951002"/>
      <display value="Proctitis"/>
     </coding>
    </code>
    <subject>
     <reference value="urn:uuid:29995d4a-1ba7-404d-b161-86670848675b"/>
    </subject>
    <context>
     <reference value="urn:uuid:a7b5ce52-314f-4b82-a131-6ab90d435d30"/>
    </context>
     <assertedDate value="2017-05-01"/>
     <asserter>
     <reference value="urn:uuid:c945c0a4-d63b-4cda-9299-12fe20524adc"/>
    </asserter>
   </Condition>
  </resource>
 </entry>
 <!--Condition 2-->
 <entry>
  <fullUrl value="urn:uuid:7ec3effa-da14-47c7-881f-0b04903861c6"/>
  <resource>
   <Condition>
    <id value="7ec3effa-da14-47c7-881f-0b04903861c6"/>
    <meta>
     <profile value="https://fhir.nhs.uk/STU3/StructureDefinition/CareConnect-ITK-Condition-1"/>
    </meta>
    <identifier>
     <system value="https://tools.ietf.org/html/rfc4122"/>
     <value value="f3c08998-307c-49db-a0b0-4f0317a992cb"/>
    </identifier>
    <clinicalStatus value="active"/>
    <verificationStatus value="confirmed"/>
    <category>
     <coding>
      <system value="https://fhir.hl7.org.uk/STU3/CareConnect-ConditionCategory-1"/>
      <code value="diagnosis"/>
      <display value="Diagnosis"/>
     </coding>
    </category>
    <code>
     <coding>
      <system value="http://snomed.info/sct"/>
      <code value="162031009"/>
      <display value="Dyspepsia"/>
     </coding>
    </code>
    <subject>
     <reference value="urn:uuid:29995d4a-1ba7-404d-b161-86670848675b"/>
    </subject>
    <context>
     <reference value="urn:uuid:a7b5ce52-314f-4b82-a131-6ab90d435d30"/>
    </context>
        <assertedDate value="2017-05-01"/>
     <asserter>
     <reference value="urn:uuid:c945c0a4-d63b-4cda-9299-12fe20524adc"/>
    </asserter>
   </Condition>
  </resource>
 </entry>
  <!--Condition 3-->
 <entry>
  <fullUrl value="urn:uuid:0547e6bf-7205-4f78-82ef-99c69ac34def"/>
  <resource>
   <Condition>
    <id value="0547e6bf-7205-4f78-82ef-99c69ac34def"/>
    <meta>
     <profile value="https://fhir.nhs.uk/STU3/StructureDefinition/CareConnect-ITK-Condition-1"/>
    </meta>
    <identifier>
     <system value="https://tools.ietf.org/html/rfc4122"/>
     <value value="e35ee3aa-09e8-466f-a91a-227ac0f795b7"/>
    </identifier>
    <clinicalStatus value="active"/>
    <verificationStatus value="confirmed"/>
    <category>
     <coding>
      <system value="https://fhir.hl7.org.uk/STU3/CareConnect-ConditionCategory-1"/>
      <code value="complaint"/>
      <display value="Complaint"/>
     </coding>
    </category>
    <code>
     <coding>
      <system value="http://snomed.info/sct"/>
      <code value="95545007"/>
      <display value="Bloody diarrhoea"/>
     </coding>
    </code>
    <subject>
     <reference value="urn:uuid:29995d4a-1ba7-404d-b161-86670848675b"/>
    </subject>
    <context>
     <reference value="urn:uuid:a7b5ce52-314f-4b82-a131-6ab90d435d30"/>
    </context>
       <assertedDate value="2017-05-01"/>
     <asserter>
     <reference value="urn:uuid:c945c0a4-d63b-4cda-9299-12fe20524adc"/>
    </asserter>
   </Condition>
  </resource>
 </entry>
   <!--Condition 4-->
 <entry>
  <fullUrl value="urn:uuid:163c7e94-eb55-40fe-a9d3-5245b4e33541"/>
  <resource>
   <Condition>
    <id value="163c7e94-eb55-40fe-a9d3-5245b4e33541"/>
    <meta>
     <profile value="https://fhir.nhs.uk/STU3/StructureDefinition/CareConnect-ITK-Condition-1"/>
    </meta>
    <identifier>
     <system value="https://tools.ietf.org/html/rfc4122"/>
     <value value="4919aa2e-21ea-4389-a625-9bb7e9a4f632"/>
    </identifier>
    <clinicalStatus value="active"/>
    <verificationStatus value="confirmed"/>
    <category>
     <coding>
      <system value="https://fhir.hl7.org.uk/STU3/CareConnect-ConditionCategory-1"/>
    		<code value="finding"/>
		<display value="Finding"/>
     </coding>
    </category>
    <code>
     <coding>
      <system value="http://snomed.info/sct"/>
      <code value="43364001"/>
      <display value="Abdominal discomfort"/>
     </coding>
    </code>
    <subject>
     <reference value="urn:uuid:29995d4a-1ba7-404d-b161-86670848675b"/>
    </subject>
    <context>
     <reference value="urn:uuid:a7b5ce52-314f-4b82-a131-6ab90d435d30"/>
    </context>
        <assertedDate value="2017-05-01"/>
     <asserter>
     <reference value="urn:uuid:c945c0a4-d63b-4cda-9299-12fe20524adc"/>
    </asserter>
   </Condition>
  </resource>
 </entry>
    <!--Condition 5-->
 <entry>
  <fullUrl value="urn:uuid:75117a4d-8f9c-4d3a-be57-c55d59b993e8"/>
  <resource>
   <Condition>
    <id value="75117a4d-8f9c-4d3a-be57-c55d59b993e8"/>
    <meta>
     <profile value="https://fhir.nhs.uk/STU3/StructureDefinition/CareConnect-ITK-Condition-1"/>
    </meta>
    <identifier>
     <system value="https://tools.ietf.org/html/rfc4122"/>
     <value value="fbf65853-584c-4935-bf08-230828340541"/>
    </identifier>
    <clinicalStatus value="active"/>
    <verificationStatus value="confirmed"/>
    <category>
     <coding>
      <system value="https://fhir.hl7.org.uk/STU3/CareConnect-ConditionCategory-1"/>
    		<code value="finding"/>
		<display value="Finding"/>
     </coding>
    </category>
    <code>
     <coding>
      <system value="http://snomed.info/sct"/>
      <code value="162052001"/>
      <display value="Left iliac fossa pain"/>
     </coding>
    </code>
    <subject>
     <reference value="urn:uuid:29995d4a-1ba7-404d-b161-86670848675b"/>
    </subject>
    <context>
     <reference value="urn:uuid:a7b5ce52-314f-4b82-a131-6ab90d435d30"/>
    </context>
        <assertedDate value="2017-05-01"/>
     <asserter>
     <reference value="urn:uuid:c945c0a4-d63b-4cda-9299-12fe20524adc"/>
    </asserter>
   </Condition>
  </resource>
 </entry>
     <!--Condition 6-->
 <entry>
  <fullUrl value="urn:uuid:10e3e7dc-2df4-49af-92f7-e3050ad0c06b"/>
  <resource>
   <Condition>
    <id value="10e3e7dc-2df4-49af-92f7-e3050ad0c06b"/>
    <meta>
     <profile value="https://fhir.nhs.uk/STU3/StructureDefinition/CareConnect-ITK-Condition-1"/>
    </meta>
    <identifier>
     <system value="https://tools.ietf.org/html/rfc4122"/>
     <value value="3c78f8d3-e0e9-4ba5-912d-260705add6d1"/>
    </identifier>
    <clinicalStatus value="active"/>
    <verificationStatus value="confirmed"/>
    <category>
     <coding>
      <system value="https://fhir.hl7.org.uk/STU3/CareConnect-ConditionCategory-1"/>
    		<code value="finding"/>
		<display value="Finding"/>
     </coding>
    </category>
    <code>
     <coding>
      <system value="http://snomed.info/sct"/>
      <code value="249543005"/>
      <display value="Abdomen soft"/>
     </coding>
    </code>
    <subject>
     <reference value="urn:uuid:29995d4a-1ba7-404d-b161-86670848675b"/>
    </subject>
    <context>
     <reference value="urn:uuid:a7b5ce52-314f-4b82-a131-6ab90d435d30"/>
    </context>
        <assertedDate value="2017-05-01"/>
     <asserter>
     <reference value="urn:uuid:c945c0a4-d63b-4cda-9299-12fe20524adc"/>
    </asserter>
   </Condition>
  </resource>
 </entry>
      <!--Condition 7-->
 <entry>
  <fullUrl value="urn:uuid:3459f067-793b-4afb-bc23-cbe3cac4243f"/>
  <resource>
   <Condition>
    <id value="3459f067-793b-4afb-bc23-cbe3cac4243f"/>
    <meta>
     <profile value="https://fhir.nhs.uk/STU3/StructureDefinition/CareConnect-ITK-Condition-1"/>
    </meta>
    <identifier>
     <system value="https://tools.ietf.org/html/rfc4122"/>
     <value value="4214573c-9904-4eda-a2ba-70bb86efe21b"/>
    </identifier>
    <clinicalStatus value="active"/>
    <verificationStatus value="confirmed"/>
    <category>
     <coding>
      <system value="https://fhir.hl7.org.uk/STU3/CareConnect-ConditionCategory-1"/>
    		<code value="finding"/>
		<display value="Finding"/>
     </coding>
    </category>
    <code>
     <coding>
      <system value="http://snomed.info/sct"/>
      <code value="274292006"/>
      <display value="On examination - left iliac fossa tender"/>
     </coding>
    </code>
    <subject>
     <reference value="urn:uuid:29995d4a-1ba7-404d-b161-86670848675b"/>
    </subject>
    <context>
     <reference value="urn:uuid:a7b5ce52-314f-4b82-a131-6ab90d435d30"/>
    </context>
        <assertedDate value="2017-05-01"/>
     <asserter>
     <reference value="urn:uuid:c945c0a4-d63b-4cda-9299-12fe20524adc"/>
    </asserter>
   </Condition>
  </resource>
 </entry>
       <!--Condition 8-->
 <entry>
  <fullUrl value="urn:uuid:c96f3f4a-c11c-4606-8d45-70f487910fe7"/>
  <resource>
   <Condition>
    <id value="c96f3f4a-c11c-4606-8d45-70f487910fe7"/>
    <meta>
     <profile value="https://fhir.nhs.uk/STU3/StructureDefinition/CareConnect-ITK-Condition-1"/>
    </meta>
    <identifier>
     <system value="https://tools.ietf.org/html/rfc4122"/>
     <value value="3c8688eb-a9b5-4626-a2b8-3687f5fa0abe"/>
    </identifier>
    <clinicalStatus value="active"/>
    <verificationStatus value="confirmed"/>
    <category>
     <coding>
      <system value="https://fhir.hl7.org.uk/STU3/CareConnect-ConditionCategory-1"/>
    		<code value="finding"/>
		<display value="Finding"/>
     </coding>
    </category>
    <code>
     <coding>
      <system value="http://snomed.info/sct"/>
      <code value="163339006"/>
      <display value="On examination - bowel sounds normal"/>
     </coding>
    </code>
    <subject>
     <reference value="urn:uuid:29995d4a-1ba7-404d-b161-86670848675b"/>
    </subject>
    <context>
     <reference value="urn:uuid:a7b5ce52-314f-4b82-a131-6ab90d435d30"/>
    </context>
        <assertedDate value="2017-05-01"/>
     <asserter>
     <reference value="urn:uuid:c945c0a4-d63b-4cda-9299-12fe20524adc"/>
    </asserter>
   </Condition>
  </resource>
 </entry>
 <!--observation 1-->
 <entry>
  <fullUrl value="urn:uuid:ed66558d-d668-453a-95fe-067fffa4cbd2"/>
  <resource>
   <Observation>
    <id value="ed66558d-d668-453a-95fe-067fffa4cbd2"/>
    <meta>
     <!--Identifies the profile being used-->
     <profile value="https://fhir.nhs.uk/STU3/StructureDefinition/CareConnect-ITK-Observation-1"/>
    </meta>
    <identifier>
     <system value="https://tools.ietf.org/html/rfc4122"/>
     <value value="a42d25cc-ca2e-41b6-b53b-03d75415ad5e"/>
    </identifier>
    <status value="final"/>
    <code>
     <coding>
      <system value="http://snomed.info/sct"/>
      <code value="363806002"/>
      <display value="Weight loss (amount)"/>
     </coding>
    </code>
    <subject>
     <reference value="urn:uuid:29995d4a-1ba7-404d-b161-86670848675b"/>
    </subject>
    <effectiveDateTime value="2017-05-01"/>
    <performer>
     <reference value="urn:uuid:c945c0a4-d63b-4cda-9299-12fe20524adc"/>
    </performer>
    <valueQuantity>
     <value value="14"/>
     <unit value="lbs"/>
     <system value="http://unitsofmeasure.org"/>
     <code value="[lb_av]"/>
    </valueQuantity>
     </Observation>
  </resource>
 </entry>
 <!--observation 2--> 
<entry>
  <fullUrl value="urn:uuid:dadd9c9d-74f8-45e0-90dc-6ff8c91b8651"/>
  <resource>
   <Observation>
    <id value="dadd9c9d-74f8-45e0-90dc-6ff8c91b8651"/>
    <meta>
     <!--Identifies the profile being used-->
     <profile value="https://fhir.nhs.uk/STU3/StructureDefinition/CareConnect-ITK-Observation-1"/>
    </meta>
    <identifier>
     <system value="https://tools.ietf.org/html/rfc4122"/>
     <value value="c90bfe38-8f7a-4909-8168-1c0b02c16029"/>
    </identifier>
    <status value="final"/>
    <code>
     <coding>
      <system value="http://snomed.info/sct"/>
      <code value="249521002"/>
      <display value="Frequency of bowel action"/>
     </coding>
    </code>
    <subject>
     <reference value="urn:uuid:29995d4a-1ba7-404d-b161-86670848675b"/>
    </subject>
    <effectiveDateTime value="2017-05-01"/>
    <performer>
     <reference value="urn:uuid:c945c0a4-d63b-4cda-9299-12fe20524adc"/>
    </performer>
    <valueRatio>
      <numerator>
     <value value="8" />
     </numerator>
   <denominator>
     <value value="1" />
     <unit value="day" />
          <system value="http://unitsofmeasure.org" />
     <code value="d" />
   </denominator>
    </valueRatio>
    </Observation>
  </resource>
 </entry> 
<!--observation 3-->
 <entry>
  <fullUrl value="urn:uuid:90d887ab-7db4-4235-bada-3ae2e31f8c74"/>
  <resource>
   <Observation>
    <id value="90d887ab-7db4-4235-bada-3ae2e31f8c74"/>
    <meta>
     <!--Identifies the profile being used-->
     <profile value="https://fhir.nhs.uk/STU3/StructureDefinition/CareConnect-ITK-Observation-1"/>
    </meta>
    <identifier>
     <system value="https://tools.ietf.org/html/rfc4122"/>
     <value value="62479076-8b52-459a-b4c2-c9b5f72bfae3"/>
    </identifier>
    <status value="final"/>
    <code>
     <coding>
      <system value="http://snomed.info/sct"/>
      <code value="443846001"/>
      <display value="Detail of history of travel"/>
     </coding>
    </code>
    <subject>
     <reference value="urn:uuid:29995d4a-1ba7-404d-b161-86670848675b"/>
    </subject>
    <effectiveDateTime value="2017-05-01"/>
    <performer>
     <reference value="urn:uuid:c945c0a4-d63b-4cda-9299-12fe20524adc"/>
    </performer>
    <valueCodeableConcept>
    <coding>
      <system value="http://snomed.info/sct"/>
      <code value="260413007"/>
      <display value="None"/>
     </coding>
</valueCodeableConcept>
     </Observation>
  </resource>
 </entry>
 <!--observation 4-->
 <entry>
  <fullUrl value="urn:uuid:654ca509-6dbf-497c-8f6f-02dd46cc5946"/>
  <resource>
   <Observation>
    <id value="654ca509-6dbf-497c-8f6f-02dd46cc5946"/>
    <meta>
     <profile value="https://fhir.nhs.uk/STU3/StructureDefinition/CareConnect-ITK-OccupationalHistory-Observation-1"/>
    </meta>
    <identifier>
     <system value="https://tools.ietf.org/html/rfc4122"/>
     <value value="0de2f40d-a62b-45c7-9267-9904e16d28bc"/>
    </identifier>
    <status value="final"/>
    <code>
     <coding>
      <system value="http://snomed.info/sct"/>
      <code value="14679004"/>
      <display value="Occupation"/>
     </coding>
    </code>
    <subject>
     <reference value="urn:uuid:29995d4a-1ba7-404d-b161-86670848675b"/>
    </subject>
    <effectivePeriod>
    <start value="2013-05-01"/>
</effectivePeriod>
    <performer>
     <reference value="urn:uuid:c945c0a4-d63b-4cda-9299-12fe20524adc"/>
    </performer>
    <valueCodeableConcept>
     <coding>
      <system value="http://snomed.info/sct"/>
      <code value="308241004"/>
      <display value="Baker"/>
     </coding>
</valueCodeableConcept>
    </Observation>
  </resource>
 </entry>
 <!--Procedure example 1-->
 <entry>
  <fullUrl value="urn:uuid:c3f61107-b238-43a0-b176-207b4fff9801"/>
  <resource>
   <Procedure>
    <id value="c3f61107-b238-43a0-b176-207b4fff9801"/>
    <meta>
     <!--Identifies the profile being used-->
     <profile value="https://fhir.nhs.uk/STU3/StructureDefinition/CareConnect-ITK-Procedure-1"/>
    </meta>
      <extension url="https://fhir.hl7.org.uk/STU3/StructureDefinition/Extension-CareConnect-DateRecorded-1">
     <valueDateTime value="2017-05-01"/>
    </extension>
    <identifier>
     <system value="https://tools.ietf.org/html/rfc4122"/>
     <value value="6b0b7066-c31d-48f7-ae3c-9f616728429b"/>
    </identifier>
    <status value="completed"/>
    <code>
     <coding>
      <system value="http://snomed.info/sct"/>
      <code value="235153008"/>
      <display value="Rigid sigmoidoscopy"/>
     </coding>
    </code>
    <subject>
     <reference value="urn:uuid:29995d4a-1ba7-404d-b161-86670848675b"/>
    </subject>
      <performedDateTime value="2017-05-01"/>
    <performer>
     <actor>
      <reference value="urn:uuid:c945c0a4-d63b-4cda-9299-12fe20524adc"/>
     </actor>
    </performer>
        <!--Reference to the condition which is the reason why this procedure has been performed-->
    <reasonReference>
     <reference value="urn:uuid:50141d4f-fe5a-4616-ab9e-9b0366333ea0"/>
    </reasonReference>
     <reasonReference>
     <reference value="urn:uuid:0547e6bf-7205-4f78-82ef-99c69ac34def"/>
    </reasonReference>
    <outcome>
     <coding>
      <system value="http://snomed.info/sct"/>
      <code value="415767003"/>
      <display value="Ulcerated mucosa of colon"/>
     </coding>
    </outcome>
   </Procedure>
  </resource>
 </entry>
  <!--Procedure example 2-->
 <entry>
  <fullUrl value="urn:uuid:6089964b-ca35-4067-a9ff-d954e3694ed5"/>
  <resource>
   <Procedure>
    <id value="6089964b-ca35-4067-a9ff-d954e3694ed5"/>
    <meta>
     <!--Identifies the profile being used-->
     <profile value="https://fhir.nhs.uk/STU3/StructureDefinition/CareConnect-ITK-Procedure-1"/>
    </meta>
      <extension url="https://fhir.hl7.org.uk/STU3/StructureDefinition/Extension-CareConnect-DateRecorded-1">
     <valueDateTime value="2017-05-01"/>
    </extension>
    <identifier>
     <system value="https://tools.ietf.org/html/rfc4122"/>
     <value value="6b0b7066-c31d-48f7-ae3c-9f616728429b"/>
    </identifier>
    <status value="completed"/>
    <code>
     <coding>
      <system value="http://snomed.info/sct"/>
      <code value="444006004"/>
      <display value="Quantitative measurement of calprotectin in stool specimen"/>
     </coding>
    </code>
    <subject>
     <reference value="urn:uuid:29995d4a-1ba7-404d-b161-86670848675b"/>
    </subject>
      <performedDateTime value="2017-05-01"/>
    <performer>
     <actor>
      <reference value="urn:uuid:c945c0a4-d63b-4cda-9299-12fe20524adc"/>
     </actor>
    </performer>
        <!--Reference to the condition which is the reason why this procedure has been performed-->
    <reasonReference>
     <reference value="urn:uuid:50141d4f-fe5a-4616-ab9e-9b0366333ea0"/>
    </reasonReference>
     <reasonReference>
     <reference value="urn:uuid:0547e6bf-7205-4f78-82ef-99c69ac34def"/>
    </reasonReference>
    </Procedure>
  </resource>
 </entry>
 <!--Medication List Example 1-->
 <entry>
  <fullUrl value="urn:uuid:cef7f8d5-78e3-4866-89f1-62470d6fd636"/>
  <resource>
   <List>
    <id value="cef7f8d5-78e3-4866-89f1-62470d6fd636"/>
    <meta>
     <profile value="https://fhir.nhs.uk/STU3/StructureDefinition/ITK-Medication-List-1"/>
    </meta>
    <identifier>
     <system value="https://tools.ietf.org/html/rfc4122"/>
     <value value="c28e33b7-dd29-4c9d-957c-ab4a834e5e77"/>
    </identifier>
    <status value="current"/>
    <mode value="snapshot"/>
    <code>
     <coding>
      <system value="http://hl7.org/fhir/list-example-use-codes"/>
      <code value="medications"/>
      <display value="Medication List"/>
     </coding>
    </code>
    <subject>
     <reference value="urn:uuid:29995d4a-1ba7-404d-b161-86670848675b"/>
    </subject>
    <entry>
     <flag>
      <coding>
       <system value="https://fhir.nhs.uk/STU3/ITK-PatientMedicationChangeType-1"/>
       <code value="09"/>
       <display value="Active"/>
      </coding>
     </flag>
     <item>
      <reference value="urn:uuid:11baa8fd-b670-47d1-ab3a-183488af5c6e"/>
     </item>
    </entry>
   </List>
  </resource>
 </entry>
 <!--Medication Statement Example 1-->
 <entry>
  <fullUrl value="urn:uuid:11baa8fd-b670-47d1-ab3a-183488af5c6e"/>
  <resource>
   <MedicationStatement>
    <id value="11baa8fd-b670-47d1-ab3a-183488af5c6e"/>
    <meta>
     <profile value="https://fhir.nhs.uk/STU3/StructureDefinition/CareConnect-ITK-MedicationStatement-1"/>
    </meta>
    <status value="active"/>
    <medicationReference>
     <reference value="urn:uuid:253e4091-84c2-4c76-abfb-60b9c2ebd475"/>
    </medicationReference>
    <subject>
     <reference value="urn:uuid:29995d4a-1ba7-404d-b161-86670848675b"/>
    </subject>
    <taken value="y"/>
    <dosage>
     <text value="2.4mg per day of Asacol in tablet form, to be taken orally once a day as 3x800mg tablets."/>
     <timing>
      <repeat>
       <frequency value="1"/>
       <period value="1"/>
       <periodUnit value="d"/>
      </repeat>
     </timing>
     <asNeededBoolean value="false"/>
     <route>
      <coding>
       <system value="http://snomed.info/sct"/>
       <code value="26643006"/>
       <display value="Oral route"/>
      </coding>
     </route>
     <doseQuantity>
      <value value="3"/>
         <unit value="Asacol 800mg MR gastro-resistant tablets (Allergan Ltd)"/> 
       <system value="http://snomed.info/sct"/> 
      <code value="13255311000001101"/> 
     </doseQuantity>
     <maxDosePerPeriod>
      <numerator>
       <value value="2400"/>
       <unit value="milligram"/>
       <system value="http://unitsofmeasure.org"/>
       <code value="mg"/>
      </numerator>
      <denominator>
       <value value="1"/>
       <system value="http://unitsofmeasure.org"/>
       <code value="d"/>
      </denominator>
     </maxDosePerPeriod>
    </dosage>
   </MedicationStatement>
  </resource>
 </entry>
 <!--Medication Example 1-->
 <entry>
  <fullUrl value="urn:uuid:253e4091-84c2-4c76-abfb-60b9c2ebd475"/>
  <resource>
   <Medication>
    <id value="253e4091-84c2-4c76-abfb-60b9c2ebd475"/>
    <meta>
     <profile value="https://fhir.hl7.org.uk/STU3/StructureDefinition/CareConnect-Medication-1"/>
    </meta>
    <code>
     <coding>
      <system value="http://snomed.info/sct"/>
      <code value="13255311000001101"/>
      <display value="Asacol 800mg MR gastro-resistant tablets (Allergan Ltd)"/>
     </coding>
    </code>
   </Medication>
  </resource>
 </entry>
 <!--Patient-Example-1-->
 <entry>
  <fullUrl value="urn:uuid:29995d4a-1ba7-404d-b161-86670848675b"/>
  <resource>
   <Patient>
    <id value="29995d4a-1ba7-404d-b161-86670848675b"/>
    <meta>
     <profile value="https://fhir.hl7.org.uk/STU3/StructureDefinition/CareConnect-Patient-1"/>
    </meta>
    <extension url="https://fhir.hl7.org.uk/STU3/StructureDefinition/Extension-CareConnect-EthnicCategory-1">
     <valueCodeableConcept>
      <coding>
      <system value="https://fhir.hl7.org.uk/STU3/CareConnect-EthnicCategory-1"/>
       <code value="CA"/>
       <display value="English"/>
      </coding>
     </valueCodeableConcept>
    </extension>
    <extension url="https://fhir.hl7.org.uk/STU3/StructureDefinition/Extension-CareConnect-ResidentialStatus-1">
     <valueCodeableConcept>
      <coding>
       <system value="https://fhir.hl7.org.uk/STU3/CareConnect-ResidentialStatus-1"/>
       <code value="H"/>
       <display value="UK Resident"/>
      </coding>
     </valueCodeableConcept>
    </extension>
    <extension url="https://fhir.hl7.org.uk/STU3/StructureDefinition/Extension-CareConnect-TreatmentCategory-1">
     <valueCodeableConcept>
      <coding>
       <system value="https://fhir.hl7.org.uk/STU3/CareConnect-TreatmentCategory-1"/>
       <code value="8"/>
       <display value="Not applicable"/>
      </coding>
     </valueCodeableConcept>
    </extension>
    <extension url="https://fhir.hl7.org.uk/STU3/StructureDefinition/Extension-CareConnect-NHSCommunication-1">
     <extension url="language">
      <valueCodeableConcept>
       <coding>
        <system value="https://fhir.hl7.org.uk/STU3/CareConnect-HumanLanguage-1"/>
        <code value="en"/>
        <display value="English"/>
       </coding>
      </valueCodeableConcept>
     </extension>
     <extension url="preferred">
      <valueBoolean value="true"/>
     </extension>
     <extension url="modeOfCommunication">
      <valueCodeableConcept>
       <coding>
        <system value="https://fhir.hl7.org.uk/STU3/CareConnect-LanguageAbilityMode-1"/>
        <code value="ESP"/>
        <display value="Expressed spoken"/>
       </coding>
      </valueCodeableConcept>
     </extension>
     <extension url="modeOfCommunication">
      <valueCodeableConcept>
       <coding>
        <system value="https://fhir.hl7.org.uk/STU3/CareConnect-LanguageAbilityMode-1"/>
        <code value="RWR"/>
        <display value="Received written"/>
       </coding>
      </valueCodeableConcept>
     </extension>
     <extension url="communicationProficiency">
      <valueCodeableConcept>
       <coding>
        <system value="https://fhir.hl7.org.uk/STU3/CareConnect-LanguageAbilityProficiency-1"/>
        <code value="E"/>
        <display value="Excellent"/>
       </coding>
      </valueCodeableConcept>
     </extension>
     <extension url="interpreterRequired">
      <valueBoolean value="false"/>
     </extension>
    </extension>
    <identifier>
     <extension url="https://fhir.hl7.org.uk/STU3/StructureDefinition/Extension-CareConnect-NHSNumberVerificationStatus-1">
      <valueCodeableConcept>
       <coding>
        <system value="https://fhir.hl7.org.uk/STU3/CareConnect-NHSNumberVerificationStatus-1"/>
        <code value="01"/>
        <display value="Number present and verified"/>
       </coding>
      </valueCodeableConcept>
     </extension>
     <system value="https://fhir.nhs.uk/Id/nhs-number"/>
     <value value="124356789"/>
    </identifier>
        <identifier>
     <system value="https://fhir.nhs.uk/Id/local-patient-identifier"/>
     <value value="TL89765"/>
    </identifier>
    <active value="true"/>
    <name>
     <use value="usual"/>
     <family value="Critchard"/>
     <given value="Agatha"/>
     <prefix value="Ms"/>
    </name>
    <telecom>
     <system value="phone"/>
     <value value="077 1234 7777"/>
     <use value="mobile"/>
    </telecom>
    <telecom>
     <system value="email"/>
     <value value="frances@delatour.net"/>
     <use value="home"/>
    </telecom>
    <gender value="female"/>
    <birthDate value="1964-02-01"/>
    <address>
     <use value="home"/>
     <line value="30 Acacia Road"/>
     <postalCode value="BM9 6PL"/>
    </address>
   </Patient>
  </resource>
 </entry>
 <!--Practitioner-Example-1-->
 <entry>
  <fullUrl value="urn:uuid:8ece9986-9af0-4882-b0cf-23a96ea7b509"/>
  <resource>
   <Practitioner>
    <id value="8ece9986-9af0-4882-b0cf-23a96ea7b509"/>
    <meta>
     <profile value="https://fhir.hl7.org.uk/STU3/StructureDefinition/CareConnect-Practitioner-1"/>
    </meta>
    <name>
     <use value="usual"/>
     <family value="Bryant"/>
     <given value="N"/>
       <prefix value="Mrs"/>
    </name>
   </Practitioner>
  </resource>
 </entry>
 <!--Practitioner-Example-2-->
 <entry>
  <fullUrl value="urn:uuid:137bc838-e3ab-4eb2-99e9-32b0c02e70eb"/>
  <resource>
   <Practitioner>
    <id value="137bc838-e3ab-4eb2-99e9-32b0c02e70eb"/>
    <meta>
     <profile value="https://fhir.hl7.org.uk/STU3/StructureDefinition/CareConnect-Practitioner-1"/>
    </meta>
    <name>
     <family value="O`Reilly"/>
     <given value="C"/>
     <prefix value="Dr"/>
    </name>
    <telecom>
     <system value="phone"/>
     <value value="01234 956412"/>
     <use value="work"/>
    </telecom>
    <address>
     <line value="Canvas Health Centre"/>
     <line value="27, Acacia Road"/>
     <postalCode value="BM9 6PM"/>
    </address>
   </Practitioner>
  </resource>
 </entry>
 <!--Practitioner-Example-3-->
 <entry>
  <fullUrl value="urn:uuid:c945c0a4-d63b-4cda-9299-12fe20524adc"/>
  <resource>
   <Practitioner>
    <id value="c945c0a4-d63b-4cda-9299-12fe20524adc"/>
    <meta>
     <profile value="https://fhir.hl7.org.uk/STU3/StructureDefinition/CareConnect-Practitioner-1"/>
    </meta>
        <identifier>
     <system value="https://fhir.nhs.uk/Id/local-practitioner-identifier"/>
     <value value="6775555"/>
    </identifier>
       <name>
     <family value="Jones"/>
     <given value="Ruth"/>
     <prefix value="Dr"/>
    </name>
    <telecom>
     <system value="phone"/>
     <value value="01234 562170"/>
     <use value="work"/>
    </telecom>
    <telecom>
     <system value="email"/>
     <value value="gd@stcrispins.nhs.uk"/>
     <use value="work"/>
    </telecom>
    <address>
    <line value="Gastroenterology Department"/>
     <line value="St. Crispin's Hospital"/>
     <city value="Donaldstown"/>
     <postalCode value="DO5 7TP"/>
    </address>
   </Practitioner>
  </resource>
 </entry>
 <!--Practitioner roles-->
 <entry>
  <fullUrl value="urn:uuid:2b103117-a783-4a66-a0de-f308cd6b63cf"/>
  <resource>
   <PractitionerRole>
    <id value="2b103117-a783-4a66-a0de-f308cd6b63cf"/>
    <meta>
     <profile value="https://fhir.hl7.org.uk/STU3/StructureDefinition/CareConnect-PractitionerRole-1"/>
    </meta>
    <practitioner>
     <reference value="urn:uuid:137bc838-e3ab-4eb2-99e9-32b0c02e70eb"/>
    </practitioner>
    <organization>
     <reference value="urn:uuid:00e2ec13-891d-4335-b383-5bb6043331db"/>
    </organization>
    <code>
     <coding>
      <system value="https://fhir.hl7.org.uk/STU3/CareConnect-SDSJobRoleName-1"/>
      <code value="R0260"/>
      <display value="General Medical Practitioner"/>
     </coding>
    </code>
   </PractitionerRole>
  </resource>
 </entry>
 <entry>
  <fullUrl value="urn:uuid:ce3c48a6-3a26-4821-aa78-2d290e332629"/>
  <resource>
   <PractitionerRole>
    <id value="ce3c48a6-3a26-4821-aa78-2d290e332629"/>
    <meta>
     <profile value="https://fhir.hl7.org.uk/STU3/StructureDefinition/CareConnect-PractitionerRole-1"/>
    </meta>
    <practitioner>
     <reference value="urn:uuid:c945c0a4-d63b-4cda-9299-12fe20524adc"/>
    </practitioner>
    <organization>
     <reference value="urn:uuid:3e31975f-1460-4fc0-8beb-b26191d1c152"/>
    </organization>
    <code>
     <coding>
      <system value="https://fhir.nhs.uk/STU3/CodeSystem/CareConnect-SDSJobRoleName-1"/>
      <code value="R0050"/>
      <display value="Consultant"/>
     </coding>
    </code>
    <specialty>
     <coding>
      <system value="http://snomed.info/sct"/>
         <code value="394584008"/>
      <display value="Gastroenterology"/>
     </coding>
    </specialty>
   </PractitionerRole>
  </resource>
 </entry>
  <entry>
  <fullUrl value="urn:uuid:0e1087cc-7138-4bd1-8d19-99dd73fead99"/>
  <resource>
   <PractitionerRole>
    <id value="0e1087cc-7138-4bd1-8d19-99dd73fead99"/>
    <meta>
     <profile value="https://fhir.hl7.org.uk/STU3/StructureDefinition/CareConnect-PractitionerRole-1"/>
    </meta>
    <practitioner>
     <reference value="urn:uuid:8ece9986-9af0-4882-b0cf-23a96ea7b509"/>
    </practitioner>
    <organization>
     <reference value="urn:uuid:3e31975f-1460-4fc0-8beb-b26191d1c152"/>
    </organization>
    <code>
     <coding>
      <system value="https://fhir.nhs.uk/STU3/CodeSystem/CareConnect-SDSJobRoleName-1"/>
    	<code value="R0600"/>
		<display value="Specialist Nurse Practitioner"/>
     </coding>
    </code>
    <specialty>
     <coding>
      <system value="http://snomed.info/sct"/>
      <code value="394584008"/>
      <display value="Gastroenterology"/>
     </coding>
    </specialty>
   </PractitionerRole>
  </resource>
 </entry>
 <!--Organization-Example-1-->
 <entry>
  <fullUrl value="urn:uuid:00e2ec13-891d-4335-b383-5bb6043331db"/>
  <resource>
   <Organization>
    <id value="00e2ec13-891d-4335-b383-5bb6043331db"/>
    <meta>
     <profile value="https://fhir.hl7.org.uk/STU3/StructureDefinition/CareConnect-Organization-1"/>
    </meta>
    <identifier>
     <system value="https://fhir.nhs.uk/Id/ods-organization-code"/>
     <value value="A111111"/>
    </identifier>
    <type>
     <coding>
      <system value="http://hl7.org/fhir/organization-type"/>
      <code value="prov"/>
      <display value="Healthcare Provider"/>
     </coding>
    </type>
    <name value="Canvas Health Centre"/>
    <telecom>
     <system value="phone"/>
     <value value="01234 956412"/>
     <use value="work"/>
    </telecom>
    <address>
     <use value="work"/>
     <line value="27 Acacia Road"/>
     <postalCode value="BM9 6PM "/>
    </address>
   </Organization>
  </resource>
 </entry>
 <!--Organization-Example-2-->
 <entry>
  <fullUrl value="urn:uuid:2fc51c08-3de9-4557-bc0e-9738be9fa99c"/>
  <resource>
   <Organization>
    <id value="2fc51c08-3de9-4557-bc0e-9738be9fa99c"/>
    <meta>
     <profile value="https://fhir.hl7.org.uk/STU3/StructureDefinition/CareConnect-Organization-1"/>
    </meta>
    <identifier>
     <system value="https://fhir.nhs.uk/Id/ods-organization-code"/>
     <value value="RX0000"/>
    </identifier>
    <type>
     <coding>
      <system value="http://hl7.org/fhir/organization-type"/>
      <code value="prov"/>
      <display value="Healthcare Provider"/>
     </coding>
    </type>
    <name value="St Crispin's Hospital"/>
    <telecom>
     <system value="phone"/>
     <value value="01234 567893"/>
     <use value="work"/>
    </telecom>
    <address>
     <line value="St Crispins Hospital"/>
     <line value="Donaldstown"/>
     <postalCode value="DO5 7TP"/>
    </address>
   </Organization>
  </resource>
 </entry>
  <!--Organization-Example-3-->
 <entry>
  <fullUrl value="urn:uuid:3e31975f-1460-4fc0-8beb-b26191d1c152"/>
  <resource>
   <Organization>
    <id value="3e31975f-1460-4fc0-8beb-b26191d1c152"/>
    <meta>
     <profile value="https://fhir.hl7.org.uk/STU3/StructureDefinition/CareConnect-Organization-1"/>
    </meta>
    <type>
     <coding>
      <system value="http://hl7.org/fhir/organization-type"/>
      <code value="team"/>
      <display value="Organizational team"/>
     </coding>
    </type>
    <name value="Gastroenterology Department, St Crispin's Hospital"/>
    <telecom>
     <system value="phone"/>
     <value value="01234 567890"/>
     <use value="work"/>
    </telecom>
     <telecom>
     <system value="email"/>
     <value value="gd@stcrispins.nhs.uk"/>
     <use value="work"/>
    </telecom>
    <address>
    <line value="Gastroenterology Department"/>
     <line value="St Crispins Hospital"/>
     <line value="Donaldstown"/>
     <postalCode value="DO5 7TP"/>
    </address>
    <partOf>
<reference value="urn:uuid:2fc51c08-3de9-4557-bc0e-9738be9fa99c"/>
</partOf>
   </Organization>
  </resource>
 </entry>
 <!--Location-Example-1-->
 <entry>
  <fullUrl value="urn:uuid:01bb1ccc-577b-4a4a-9fb0-9c8fe9f21fa3"/>
  <resource>
   <Location>
    <id value="01bb1ccc-577b-4a4a-9fb0-9c8fe9f21fa3"/>
    <meta>
     <profile value="https://fhir.hl7.org.uk/STU3/StructureDefinition/CareConnect-Location-1"/>
    </meta>
    <name value="Outpatient's Clinic, Gastroenterology Department"/>
    <type>
     <coding>
      <system value="http://hl7.org/fhir/v3/RoleCode"/>
      <code value="OF"/>
      <display value="Outpatient facility"/>
     </coding>
    </type>
        <address>
      <line value="Grant Building"/>
     <line value="St Crispins Hospital"/>
     <line value="Donaldstown"/>
     <postalCode value="DO5 7TP"/>
    </address>
    <managingOrganization>
     <reference value="urn:uuid:3e31975f-1460-4fc0-8beb-b26191d1c152"/>
    </managingOrganization>
   </Location>
  </resource>
 </entry>
</Bundle>
