<?xml version="1.0" encoding="UTF-8"?>
<Bundle xmlns="http://hl7.org/fhir">
<id value="df93338c-65af-4afd-8ca8-7b926af2d4af"/>
 <meta>
  <profile value="https://fhir.nhs.uk/STU3/StructureDefinition/ITK-Message-Bundle-1"/>
 </meta>
 <identifier>
  <system value="https://tools.ietf.org/html/rfc4122"/>
  <value value="44bef72e-9ea9-49e0-a13c-60e10f1209ec"/>
 </identifier>
 <type value="message"/>
 <entry>
  <fullUrl value="urn:uuid:d51a08ae-80b6-4e3b-ad0b-0bb891a81bc3"/>
  <resource>
   <MessageHeader>
    <id value="d51a08ae-80b6-4e3b-ad0b-0bb891a81bc3"/>
    <meta>
     <profile value="https://fhir.nhs.uk/STU3/StructureDefinition/ITK-MessageHeader-2"/>
    </meta>
    <extension url="https://fhir.nhs.uk/STU3/StructureDefinition/Extension-ITK-MessageHandling-2">
     <!--The value of this handling specification is dependant on the response pattern.-->
     <extension url="BusAckRequested">
      <valueBoolean value="false"/>
     </extension>
     <extension url="InfAckRequested">
      <valueBoolean value="false"/>
     </extension>
     <extension url="RecipientType">
      <valueCoding>
       <system value="https://fhir.nhs.uk/STU3/CodeSystem/ITK-RecipientType-1"/>
       <code value="FA"/>
       <display value="For Action"/>
      </valueCoding>
     </extension>
     <extension url="MessageDefinition">
      <valueReference>
       <reference value="https://fhir.nhs.uk/STU3/MessageDefinition/ITK-Response-MessageDefinition-Instance-1"/>
      </valueReference>
     </extension>
     <extension url="SenderReference">
      <valueString value="None"/>
     </extension>
     <extension url="LocalExtension">
      <valueString value="None"/>
     </extension>
    </extension>
    <event>
     <system value="https://fhir.nhs.uk/STU3/CodeSystem/ITK-MessageEvent-2"/>
     <code value="ITK008M"/>
     <display value="ITK Response"/>
    </event>
    <sender>
     <reference value="urn:uuid:49665946-598b-4b7e-8b4c-94725f793220"/>
    </sender>
    <timestamp value="2017-01-23T10:10:16+00:00"/>
    <source>
     <endpoint value="NOROT003"/>
    </source>
    <response>
     <identifier value="e0f43cb6-933e-423d-a200-a68e94bc7d1f"/>
     <code value="ok"/>
     <details>
      <reference value="urn:uuid:48f864a2-9759-470d-9afc-6e29230a5823"/>
     </details>
    </response>
   </MessageHeader>
  </resource>
 </entry>
 <!--Practitioner-->
 <entry>
  <fullUrl value="urn:uuid:49665946-598b-4b7e-8b4c-94725f793220"/>
  <resource>
   <Practitioner>
    <id value="49665946-598b-4b7e-8b4c-94725f793220"/>
    <meta>
     <profile value="https://fhir.nhs.uk/STU3/StructureDefinition/CareConnect-ITK-Header-Practitioner-1"/>
    </meta>
    <identifier>
     <system value="https://fhir.nhs.uk/Id/sds-user-id"/>
     <value value="099945750518"/>
    </identifier>
    <name>
     <family value="Socrates"/>
     <given value="Diane"/>
     <prefix value="Dr"/>
    </name>
   </Practitioner>
  </resource>
 </entry>
 <entry>
  <fullUrl value="urn:uuid:48f864a2-9759-470d-9afc-6e29230a5823"/>
  <resource>
    <OperationOutcome>
    <id value="519b188a-ac9f-49fc-b548-6ab300451049"/>
    <meta>
     <profile value="https://fhir.nhs.uk/STU3/StructureDefinition/ITK-Response-OperationOutcome-1"/>
    </meta>
    <issue>
     <severity value="fatal"/>
     <code value="processing"/>
     <details>
      <coding>
       <system value="https://fhir.nhs.uk/STU3/CodeSystem/ITK-ResponseCodes-1"/>
       <code value="20015"/>
       <display value="Message too large"/>
      </coding>
     </details>
    </issue>
   </OperationOutcome>
  </resource>
 </entry>
</Bundle>