<?xml version="1.0" encoding="UTF-8"?>
<!--This xml example is for illustrative purposes only and has not been clinically verified-->
<Bundle xmlns="http://hl7.org/fhir" xmlns:xsi="http://www.w3.org/2001/XMLSchema-instance" xsi:schemaLocation="http://hl7.org/fhir ../Schemas/bundle.xsd">
	<id value="eab677e7-6503-4224-b543-e5df20a4efe1"/>
	<meta>
		<profile value="https://fhir.nhs.uk/STU3/StructureDefinition/ITK-Document-Bundle-1"/>
	</meta>
	<identifier>
		<system value="https://tools.ietf.org/html/rfc4122"/>
		<value value="fa7b0d14-2596-497e-b31c-abeaede9bce3"/>
	</identifier>
	<type value="document"/>
	<!--Outpatient Letter Composition-->
	<entry>
		<fullUrl value="urn:uuid:286bfe88-8d90-489d-9eef-8c00e2731470"/>
		<resource>
			<Composition>
				<id value="286bfe88-8d90-489d-9eef-8c00e2731470"/>
				<meta>
					<profile value="https://fhir.nhs.uk/STU3/StructureDefinition/ITK-OPL-Composition-1"/>
				</meta>
				<!--Information Recipient 1-->
				<extension url="https://fhir.nhs.uk/STU3/StructureDefinition/Extension-ITK-InformationRecipient-1">
					<valueReference>
						<reference value="urn:uuid:159c7259-4253-4e21-90c7-87497a2ba863"/>
					</valueReference>
				</extension>
				<!--Information Recipient 2-->
				<extension url="https://fhir.nhs.uk/STU3/StructureDefinition/Extension-ITK-InformationRecipient-1">
					<valueReference>
						<reference value="urn:uuid:251b960d-3a48-405b-9061-44d51fbf352b"/>
					</valueReference>
				</extension>
				<!--Information Recipient 3-->
				<extension url="https://fhir.nhs.uk/STU3/StructureDefinition/Extension-ITK-InformationRecipient-1">
					<valueReference>
						<reference value="urn:uuid:296a7f30-033f-4f31-b846-0c2e85836428"/>
					</valueReference>
				</extension>
				<!--Information Recipient 4-->
				<extension url="https://fhir.nhs.uk/STU3/StructureDefinition/Extension-ITK-InformationRecipient-1">
					<valueReference>
						<reference value="urn:uuid:d3767dcf-8211-41ce-a07f-906c0399c757"/>
					</valueReference>
				</extension>
				<!--Information Recipient 5-->
				<extension url="https://fhir.nhs.uk/STU3/StructureDefinition/Extension-ITK-InformationRecipient-1">
					<valueReference>
						<reference value="urn:uuid:92181479-95c0-49b8-9cf3-7ffb42823915"/>
					</valueReference>
				</extension>
				<extension url="https://fhir.nhs.uk/STU3/StructureDefinition/Extension-ITK-CareSettingType-1">
					<valueCodeableConcept>
						<coding>
							<system value="http://snomed.info/sct"/>
							<code value="893641000000102"/>
							<display value="Palliative medicine service"/>
						</coding>
					</valueCodeableConcept>
				</extension>
				<identifier>
					<value value="386f8c09-1139-4c3a-bce1-c0e20b557f18"/>
				</identifier>
				<status value="final"/>
				<type>
					<!--Outpatient letter-->
					<coding>
						<system value="http://snomed.info/sct"/>
						<code value="823681000000100"/>
						<display value="Outpatient letter"/>
					</coding>
				</type>
				<subject>
					<reference value="urn:uuid:159c7259-4253-4e21-90c7-87497a2ba863"/>
				</subject>
				<!--Reference to the clinical encounter or type of care this documentation is associated with.-->
				<encounter>
					<reference value="urn:uuid:a5c73078-72e8-4c2b-a4f6-a3fdcc53b39e"/>
				</encounter>
				<!--The composition editing time, when the composition was last logically changed by the author.-->
				<date value="2017-05-11T14:38:00+00:00"/>
				<!--Identifies who is responsible for the information in the composition, not necessarily who typed it in-->
				<author>
					<reference value="urn:uuid:619ac49c-9409-4979-8594-c47d33ef6bfc"/>
				</author>
				<title value="Outpatient letter"/>
				<!--The code specifying the level of confidentiality of the Composition.-->
				<confidentiality value="V"/>
				<!--Identifies the organization responsible for ongoing maintenance of and access to the composition/document information.-->
				<custodian>
					<reference value="urn:uuid:3faff938-09cb-4409-bd20-0c47d2fbdf6e"/>
				</custodian>
				<!--Sections are included here-->
				<section>
					<title value="Attendance details"/>
					<code>
						<coding>
							<system value="http://snomed.info/sct"/>
							<code value="1077881000000105"/>
							<display value="Attendance details"/>
						</coding>
					</code>
					<text>
						<status value="generated"/>
						<div xmlns="http://www.w3.org/1999/xhtml">
							<table width="100%">
								<tbody>
									<tr>
										<td colspan="2" style="width:100%">Dear Dr. O'Reilly<br/>I had the pleasure of meeting Ms. Walker at the palliative care outpatient clinic today, referred by Susan Snodgrass from the community Macmillan team, Endowdown Centre, BM5 0TP on the 23 April 2017.<br/>
										</td>
									</tr>
									<tr>
										<th>Date of appointment/contact</th>
										<td>01-May-2017</td>
									</tr>
									<tr>
										<th>Contact type</th>
										<td>First appointment</td>
									</tr>
									<tr>
										<th>Consultation method</th>
										<td>Face-to-face</td>
									</tr>
									<tr>
										<th>Responsible Healthcare professional</th>
										<td>Dr. Doris Mackay</td>
									</tr>
									<tr>
										<th rowspan="3">Seen by</th>
										<td>Dr. Doris Mackay</td>
									</tr>
									<tr>
										<td>Role: Consultant in Palliative Medicine</td>
									</tr>
									<tr>
										<td>Tel: (01234) 562987</td>
									</tr>
									<tr>
										<th rowspan="2">Person accompanying patient</th>
										<td>Ms. Karen Walker (daughter)</td>
									</tr>
									<tr>
										<td>Mrs. N Bryant (IBD specialist nurse)</td>
									</tr>
									<tr>
										<th>Outcome of outpatient attendance</th>
										<td>Appointment made for 01/06/2017</td>
									</tr>
								</tbody>
							</table>
						</div>
					</text>
					<!--Specifies the order applied to the items in the section entries-->
					<orderedBy>
						<coding>
							<system value="http://hl7.org/fhir/list-order"/>
							<code value="system"/>
							<display value="Sorted by System"/>
						</coding>
					</orderedBy>
					<!--Reference to the encounter resource where information for this section can be found-->
					<entry>
						<reference value="urn:uuid:a5c73078-72e8-4c2b-a4f6-a3fdcc53b39e"/>
					</entry>
				</section>
				<section>
					<title value="Referrer details"/>
					<code>
						<coding>
							<system value="http://snomed.info/sct"/>
							<code value="1052891000000108"/>
							<display value="Referrer details"/>
						</coding>
					</code>
					<text>
						<status value="generated"/>
						<div xmlns="http://www.w3.org/1999/xhtml">
							<table width="100%">
								<tbody>
									<tr>
										<th>Referrer details</th>
										<td>
											<p>Susan Snodgrass</p>
											<p>Role: Other Community Team Manager</p>
											<p>Organisation: Community Macmillan team, Endowdown Centre, BM5 0TP </p>
										</td>
									</tr>
								</tbody>
							</table>
						</div>
					</text>
				</section>
				<section>
					<title value="Diagnoses"/>
					<code>
						<coding>
							<system value="http://snomed.info/sct"/>
							<code value="887161000000102"/>
							<display value="Diagnoses"/>
						</coding>
					</code>
					<text>
						<status value="generated"/>
						<div xmlns="http://www.w3.org/1999/xhtml">
							<table width="100%">
								<tbody>
									<tr>
										<th>Diagnosis</th>
									</tr>
									<tr>
										<td>1.	Metastatic renal cell carcinoma</td>
									</tr>
									<tr>
										<td>2. Secondary liver cell carcinoma</td>
									</tr>
									<tr>
										<td>3. Necrotic subcutaneous soft tissue nodule (anterior to liver)</td>
									</tr>
									<tr>
										<td>4. Type II diabetes</td>
									</tr>
									<tr>
										<td>5. Osteoporosis</td>
									</tr>
									<tr>
										<td>6. Hiatus hernia</td>
									</tr>
									<tr>
										<td>7. Vertigo</td>
									</tr>
								</tbody>
							</table>
						</div>
					</text>
					<!--Order of section entries-->
					<orderedBy>
						<coding>
							<system value="http://hl7.org/fhir/list-order"/>
							<code value="system"/>
							<display value="Sorted by System"/>
						</coding>
					</orderedBy>
					<!--Reference to the Condition resource which carries supporting information for this section.-->
					<entry>
						<reference value="urn:uuid:25682e5b-1453-42ae-b830-091f75dedbd3"/>
						<display value="Metastatic renal cell carcinoma"/>
					</entry>
					<entry>
						<reference value="urn:uuid:c96be778-49bc-4dfb-be11-66be679b7995"/>
						<display value="Secondary liver cell carcinoma"/>
					</entry>
					<entry>
						<reference value="urn:uuid:cda3f927-135f-4295-a8ba-174b11330204"/>
						<display value="Necrotic subcutaneous soft tissue nodule (anterior to liver)"/>
					</entry>
					<entry>
						<reference value="urn:uuid:c3239ef6-1ed4-4ca4-9db9-d4589c1cdcad"/>
						<display value="Type II diabetes"/>
					</entry>
					<entry>
						<reference value="urn:uuid:26aacb3d-e1aa-4f29-8103-69ca35c81b88"/>
						<display value="Osteoporosis"/>
					</entry>
					<entry>
						<reference value="urn:uuid:a5b3ac0b-11e3-4906-bf31-9797731acacb"/>
						<display value="Hiatus hernia"/>
					</entry>
					<entry>
						<reference value="urn:uuid:d97c0b6c-fa12-47b5-87e6-1ec7964fc4ba"/>
						<display value="Vertigo"/>
					</entry>
				</section>
				<!--Problems and issues-->
				<section>
					<title value="Problems and issues"/>
					<code>
						<coding>
							<system value="http://snomed.info/sct"/>
							<code value="887151000000100"/>
							<display value="Problems and issues"/>
						</coding>
					</code>
					<text>
						<status value="generated"/>
						<div xmlns="http://www.w3.org/1999/xhtml">
							<table width="100%">
								<tbody>
									<tr>
										<th>Problems and issue</th>
									</tr>
									<tr>
										<td>1.	Pain</td>
									</tr>
									<tr>
										<td>2.	Nausea</td>
									</tr>
									<tr>
										<td>3. Fatigue</td>
									</tr>
									<tr>
										<td>4.	Psychologically: tearful and upset</td>
									</tr>
								</tbody>
							</table>
						</div>
					</text>
				</section>
				<section>
					<title value="History"/>
					<code>
						<coding>
							<system value="http://snomed.info/sct"/>
							<code value="717121000000105"/>
							<display value="History"/>
						</coding>
					</code>
					<text>
						<status value="generated"/>
						<div xmlns="http://www.w3.org/1999/xhtml">
							<table width="100%">
								<tbody>
									<tr>
										<th>History since last contact</th>
										<td>Ms. Walker was referred for review of symptom control. She has been on pazopanib since May 2017.She had a right nephrectomy for clear cell renal carcinoma in Sept 2016, and now has metastatic disease.</td>
									</tr>
						</tbody>
						</table>
							<table width="100%">
								<tbody>
									<tr>
										<th>Presenting complaint or issue</th>
										<th>History of each presenting complaint or issue</th>
									</tr>
									<tr>
										<td>Pain:</td>
										<td>Ms. Walker struggles with pain predominantly around the right upper quadrant of her abdomen and this goes all the way round to the back, at worst described as 10/10.  She has been reluctant to take full dose of Co codamol - she intermittently takes one tablet at a time (30/500mg). According to Karen, Ms. Walker clearly has a high pain tolerance level and tends to underplay her symptoms.</td>
									</tr>
									<tr>
										<td>Fatigue:</td>
										<td>Ms. Walker finds herself tiring out by the second half of the day, particularly if she has done a bit more than usual earlier on.</td>
									</tr>
									<tr>
										<td>Psychologically:</td>
										<td>According to Karen, she and Ms. Walker have been intermittently tearful and upset given news of disease recurrence and are doing their best to deal with it. Ms. Walker wasn't expecting to hear about cancer recurrence in such a short period after her surgery.</td>
									</tr>
								</tbody>
							</table>
						</div>
					</text>
					<orderedBy>
						<coding>
							<system value="http://hl7.org/fhir/list-order"/>
							<code value="system"/>
							<display value="Sorted by System"/>
						</coding>
					</orderedBy>
					<!--Reference to the resources where information for this section can be found-->
					<entry>
						<reference value="urn:uuid:25682e5b-1453-42ae-b830-091f75dedbd3"/>
					</entry>
				</section>
				<section>
					<title value="Allergies and adverse reactions"/>
					<!--SNOMED CT classification of section-->
					<code>
						<coding>
							<system value="http://snomed.info/sct"/>
							<code value="886921000000105"/>
							<display value="Allergies and adverse reactions"/>
						</coding>
					</code>
					<text>
						<status value="generated"/>
						<div xmlns="http://www.w3.org/1999/xhtml">
							<table width="100%">
								<tbody>
									<tr>
										<th>Causative agent</th>
										<td>Ms. Walker has no known allergies or adverse reactions.</td>
									</tr>
								</tbody>
							</table>
						</div>
					</text>
					<!--Order of section entries-->
					<orderedBy>
						<coding>
							<system value="http://hl7.org/fhir/list-order"/>
							<code value="system"/>
							<display value="Sorted by System"/>
						</coding>
					</orderedBy>
					<!--Reference to Allergies List as the source of information for this section-->
					<entry>
						<reference value="urn:uuid:5824d803-9adb-4fa8-9cba-11a0ea9105d0"/>
					</entry>
				</section>
				<section>
					<title value="Participation in research"/>
					<!--SNOMED CT classification of section-->
					<code>
						<coding>
							<system value="http://snomed.info/sct"/>
							<code value="886751000000102"/>
							<display value="Participation in research"/>
						</coding>
					</code>
					<text>
						<status value="generated"/>
						<div xmlns="http://www.w3.org/1999/xhtml">
							<table width="100%">
								<tbody>
									<tr>
										<th>Name of research study</th>
										<td>
											<a href="http://www.kcl.ac.uk/lsm/research/divisions/diiid/departments/rheumatology/research/clinical/current/apippra/apippra.aspx">APIPPRA</a>
										</td>
									</tr>
								</tbody>
							</table>
						</div>
					</text>
				</section>
				<section>
					<title value="Social context"/>
					<!--SNOMED CT classification of section-->
					<code>
						<coding>
							<system value="http://snomed.info/sct"/>
							<code value="887051000000101"/>
							<display value="Social context"/>
						</coding>
					</code>
					<text>
						<status value="generated"/>
						<div xmlns="http://www.w3.org/1999/xhtml">
							<table width="100%">
								<tbody>
									<tr>
										<th>Occupational history</th>
										<td>Unemployed</td>
									</tr>
									<tr>
										<th>Alcohol intake</th>
										<td>10-12 units weekly</td>
									</tr>
									<tr>
										<th>Smoking</th>
										<td>Ex-smoker</td>
									</tr>
								</tbody>
							</table>
						</div>
					</text>
					<orderedBy>
						<coding>
							<system value="http://hl7.org/fhir/list-order"/>
							<code value="system"/>
							<display value="Sorted by System"/>
						</coding>
					</orderedBy>
					<!--References to supporting Observation resources-->
					<entry>
						<reference value="urn:uuid:3da3e1b0-76a6-411f-9b56-d19b73f8d901"/>
					</entry>
				</section>
				<section>
					<title value="Clinical review of systems"/>
					<code>
						<coding>
							<system value="http://snomed.info/sct"/>
							<code value="887121000000105"/>
							<display value="Review of systems"/>
						</coding>
					</code>
					<text>
						<status value="generated"/>
						<div xmlns="http://www.w3.org/1999/xhtml">
							<table width="100%">
								<tbody>
									<tr>
										<th>Clinical review of systems</th>
										<td>Poor Sleep</td>
									</tr>
								</tbody>
							</table>
						</div>
					</text>
				</section>
				<!--Examination findings-->
				<section>
					<title value="Examination findings"/>
					<code>
						<coding>
							<system value="http://snomed.info/sct"/>
							<code value="715851000000102"/>
							<display value="Examination findings"/>
						</coding>
					</code>
					<text>
						<status value="generated"/>
						<div xmlns="http://www.w3.org/1999/xhtml">
							<table width="100%">
								<tbody>
									<tr>
										<th>Examination findings</th>
										<td>Musculoskeletal system - Trapezius discomfort on elevation of the shoulders. Discomfort on active neck movements.</td>
									</tr>
								</tbody>
							</table>
						</div>
					</text>
					<orderedBy>
						<coding>
							<system value="http://hl7.org/fhir/list-order"/>
							<code value="system"/>
							<display value="Sorted by System"/>
						</coding>
					</orderedBy>
				</section>
				<section>
					<title value="Patient and carer concerns, expectations and wishes"/>
					<!--SNOMED CT classification of section-->
					<code>
						<coding>
							<system value="http://snomed.info/sct"/>
							<code value="1052941000000107"/>
							<display value="Patient and carer concerns, expectations and wishes"/>
						</coding>
					</code>
					<text>
						<status value="generated"/>
						<div xmlns="http://www.w3.org/1999/xhtml">
							<table width="100%">
								<tbody>
									<tr>
										<th>Patient and carer concerns, expectations and wishes</th>
										<td>I just want to stop hurting all the time and to have some energy back.</td>
									</tr>
								</tbody>
							</table>
						</div>
					</text>
				</section>
				<section>
					<title value="Investigation results"/>
					<code>
						<coding>
							<system value="http://snomed.info/sct"/>
							<code value="1082101000000102"/>
							<display value="Investigation results"/>
						</coding>
					</code>
					<text>
						<status value="generated"/>
						<div xmlns="http://www.w3.org/1999/xhtml">
							<table width="100%">
								<tbody>
									<tr>
										<th>Investigation result</th>
										<td>Antinuclear antibodies: Normal</td>
									</tr>
									<tr>
										<th>Investigation result</th>
										<td>Complement levels: Normal</td>
									</tr>
									<tr>
										<th>Investigation result</th>
										<td>Immunoglobins:Normal</td>
									</tr>
								</tbody>
							</table>
						</div>
					</text>
					<orderedBy>
						<coding>
							<system value="http://hl7.org/fhir/list-order"/>
							<code value="system"/>
							<display value="Sorted by System"/>
						</coding>
					</orderedBy>
					<!--Reference to the resources where information for this section can be found-->
					<entry>
						<reference value="urn:uuid:4cdce895-3fc2-48bd-a0c9-6215deff251e"/>
					</entry>
				</section>
				<section>
					<title value="Medications and medical devices"/>
					<code>
						<coding>
							<system value="http://snomed.info/sct"/>
							<code value="933361000000108"/>
							<display value="Medications and medical devices"/>
						</coding>
					</code>
					<text>
						<status value="generated"/>
						<div xmlns="http://www.w3.org/1999/xhtml">
							<table width="100%">
								<tbody>
									<tr>
										<th>Medication name</th>
										<td>Amitriptyline</td>
									</tr>
									<tr>
										<th>Medication form</th>
										<td>Tablet</td>
									</tr>
									<tr>
										<th>Route</th>
										<td>Oral</td>
									</tr>
									<tr>
										<th>Dose</th>
										<td>1 x 10mg tablet</td>
									</tr>
									<tr>
										<th>Medication frequency</th>
										<td>Once per day</td>
									</tr>
									<tr>
										<th>Additional instructions</th>
										<td>To be taken one hour before bed</td>
									</tr>
									<tr>
										<th>Medication change</th>
										<td>Status: Medication added</td>
									</tr>
									<tr>
										<th>Start date/time</th>
										<td>11/05/17</td>
									</tr>
									<tr>
										<th>End date/time</th>
										<td>Trial for 2x weeks</td>
									</tr>
									<tr>
										<th>Reason for medication change</th>
										<td>Sleep disturbance</td>
									</tr>
									<tr>
										<th>Link to indication record</th>
										<td>A link to the record which contains the Indication for this medication order.</td>
									</tr>
									<tr>
										<th rowspan="2">Medication recommendations</th>
										<td>Titrating upwards according to response and tolerance.</td>
									</tr>
									<tr>
										<td>Patient given 2x week prescription in clinic. GP to please review in 2xweeks and renew or amend prescription as necessary.</td>
									</tr>
								</tbody>
							</table>
						</div>
					</text>
					<orderedBy>
						<coding>
							<system value="http://hl7.org/fhir/list-order"/>
							<code value="system"/>
							<display value="Sorted by System"/>
						</coding>
					</orderedBy>
					<!--Reference to medication list-->
					<entry>
						<reference value="urn:uuid:517ab139-6e00-4101-a53f-b058fc94c612"/>
					</entry>
				</section>
				<section>
					<title value="Plan and requested actions"/>
					<code>
						<coding>
							<system value="http://snomed.info/sct"/>
							<code value="887201000000105"/>
							<display value="Plan and requested actions"/>
						</coding>
					</code>
					<text>
						<status value="generated"/>
						<div xmlns="http://www.w3.org/1999/xhtml">
							<table width="100%">
								<tbody>
									<tr>
										<th>Actions for patient or their carer</th>
										<td>Should endeavor to take regular, gentle exercise in gradually increasing amounts.</td>
									</tr>
								</tbody>
							</table>
						</div>
					</text>
				</section>
				<section>
					<title value="Information and advice given"/>
					<code>
						<coding>
							<system value="http://snomed.info/sct"/>
							<code value="1052951000000105"/>
							<display value="Information and advice given"/>
						</coding>
					</code>
					<text>
						<status value="generated"/>
						<div xmlns="http://www.w3.org/1999/xhtml">
							<table width="100%">
								<tbody>
									<tr>
										<th>Information and advice given</th>
										<td>The patient was advised that previous abnormal blood results are not of any clinical significant other than reflecting known diagnosis of thyroid disease. </td>
									</tr>
								</tbody>
							</table>
						</div>
					</text>
				</section>
				<section>
					<title value="Person completing record"/>
					<code>
						<coding>
							<system value="http://snomed.info/sct"/>
							<code value="887231000000104"/>
							<display value="Person completing record"/>
						</coding>
					</code>
					<text>
						<status value="generated"/>
						<div xmlns="http://www.w3.org/1999/xhtml">
							<table width="100%">
								<tbody>
									<tr>
										<th>Name</th>
										<td>Dr. Doris Mackay</td>
									</tr>
									<tr>
										<th>Role</th>
										<td>Consultant in Palliative Medicine</td>
									</tr>
									<tr>
										<th>Specialty</th>
										<td>Palliative Medicine</td>
									</tr>
									<tr>
										<th>Date and time completed</th>
										<td>01/05/17: 16:42</td>
									</tr>
									<tr>
										<th>Contact details</th>
										<td>Email: pm@stcrispins.nhs.uk</td>
									</tr>
								</tbody>
							</table>
						</div>
					</text>
				</section>
			</Composition>
		</resource>
	</entry>
	<!--Encounter Example 1-->
	<entry>
		<fullUrl value="urn:uuid:a5c73078-72e8-4c2b-a4f6-a3fdcc53b39e"/>
		<resource>
			<Encounter>
				<id value="a5c73078-72e8-4c2b-a4f6-a3fdcc53b39e"/>
				<meta>
					<profile value="https://fhir.nhs.uk/STU3/StructureDefinition/CareConnect-ITK-Encounter-1"/>
				</meta>
				<identifier>
					<system value="https://tools.ietf.org/html/rfc4122"/>
					<value value="3da3e1b0-76a6-411f-9b56-d19b73f8d901"/>
				</identifier>
				<status value="finished"/>
				<class>
					<system value="http://hl7.org/fhir/v3-ActEncounterCode"/>
					<code value="AMB"/>
					<display value="ambulatory"/>
					<!--The term ambulatory usually implies that the patient has come to the location and is not assigned to a bed. Sometimes referred to as an outpatient encounter.-->
				</class>
				<!--Specific type of encounter-->
				<type>
					<coding>
						<system value="http://snomed.info/sct"/>
						<code value="325941000000100"/>
						<display value="Face to face assessment"/>
					</coding>
				</type>
				<!--Reference to the patient as the subject of the Encounter-->
				<subject>
					<reference value="urn:uuid:159c7259-4253-4e21-90c7-87497a2ba863"/>
				</subject>
				<!--Reference to the participants present during the encounter-->
				<participant>
					<type>
						<coding>
							<system value="http://hl7.org/fhir/v3/ParticipationType"/>
							<code value="PPRF"/>
							<display value="primary performer"/>
						</coding>
					</type>
					<individual>
						<reference value="urn:uuid:619ac49c-9409-4979-8594-c47d33ef6bfc"/>
					</individual>
				</participant>
				<period>
					<start value="2017-05-01T15:40:00+00:00"/>
					<end value="2017-05-01T16:42:00+00:00"/>
				</period>
				<!--	The list of diagnoses relevant to this encounter-->
				<diagnosis>
					<!--Reason the encounter takes place (resource)-->
					<condition>
						<reference value="urn:uuid:25682e5b-1453-42ae-b830-091f75dedbd3"/>
					</condition>
					<role>
						<coding>
							<system value="http://hl7.org/fhir/diagnosis-role"/>
							<code value="CC"/>
							<display value="Chief complaint"/>
						</coding>
					</role>
				</diagnosis>
				<hospitalization>
					<admitSource>
						<coding>
							<system value="http://hl7.org/fhir/admit-source"/>
							<code value="other"/>
							<display value="Other"/>
						</coding>
					</admitSource>
					<!--	Category or kind of location after discharge-->
					<dischargeDisposition>
						<coding>
							<system value="http://hl7.org/fhir/discharge-disposition"/>
							<code value="home"/>
							<display value="Home"/>
						</coding>
					</dischargeDisposition>
				</hospitalization>
			</Encounter>
		</resource>
	</entry>
	<!--Practitioner-Example-->
	<entry>
		<fullUrl value="urn:uuid:619ac49c-9409-4979-8594-c47d33ef6bfc"/>
		<resource>
			<Practitioner>
				<id value="619ac49c-9409-4979-8594-c47d33ef6bfc"/>
				<meta>
					<profile value="https://fhir.hl7.org.uk/STU3/StructureDefinition/CareConnect-Practitioner-1"/>
				</meta>
				<name>
					<family value="MacKay"/>
					<given value="Doris"/>
					<prefix value="Dr"/>
				</name>
				<telecom>
					<system value="phone"/>
					<value value="01234 567890"/>
					<use value="work"/>
				</telecom>
				<telecom>
					<system value="email"/>
					<value value="pm@stcrispins.nhs.uk"/>
					<use value="work"/>
				</telecom>
				<address>
					<line value="Department of Palliative Medicine"/>
					<line value="St Crispin's Hospital"/>
					<city value="Donaldstown"/>
					<postalCode value="DO5 7TP"/>
				</address>
			</Practitioner>
		</resource>
	</entry>
	<!--Medication List Example 1-->
	<entry>
		<fullUrl value="urn:uuid:517ab139-6e00-4101-a53f-b058fc94c612"/>
		<resource>
			<List>
				<id value="517ab139-6e00-4101-a53f-b058fc94c612"/>
				<meta>
					<profile value="https://fhir.nhs.uk/STU3/StructureDefinition/ITK-Medication-List-1"/>
				</meta>
				<identifier>
					<system value="https://tools.ietf.org/html/rfc4122"/>
					<value value="74da02bc-8996-46f8-826c-19ba22e10e17"/>
				</identifier>
				<status value="current"/>
				<mode value="snapshot"/>
				<code>
					<coding>
						<system value="http://hl7.org/fhir/list-example-use-codes"/>
						<code value="medications"/>
						<display value="Medication List"/>
					</coding>
				</code>
				<subject>
					<!--Patient reference-->
					<reference value="urn:uuid:159c7259-4253-4e21-90c7-87497a2ba863"/>
				</subject>
				<entry>
					<flag>
						<coding>
							<system value="https://fhir.nhs.uk/STU3/ITK-PatientMedicationChangeType-1"/>
							<code value="04"/>
							<display value="Addition"/>
						</coding>
					</flag>
					<item>
						<reference value="urn:uuid:5da7d137-1e94-4b83-ab6c-1af2c3edfaf0"/>
					</item>
				</entry>
			</List>
		</resource>
	</entry>
	<!--Medication Statement Example 1-->
	<entry>
		<fullUrl value="urn:uuid:5da7d137-1e94-4b83-ab6c-1af2c3edfaf0"/>
		<resource>
			<MedicationStatement>
				<id value="5da7d137-1e94-4b83-ab6c-1af2c3edfaf0"/>
				<meta>
					<profile value="https://fhir.nhs.uk/STU3/StructureDefinition/CareConnect-ITK-MedicationStatement-1"/>
				</meta>
				<status value="active"/>
				<medicationReference>
					<reference value="urn:uuid:e02e3f74-8635-46ca-bd48-83deaffeb510"/>
					<display value="Amitriptyline"/>
				</medicationReference>
				<effectivePeriod>
					<start value="2017-05-11"/>
					<end value="2017-05-25"/>
				</effectivePeriod>
				<subject>
					<reference value="urn:uuid:159c7259-4253-4e21-90c7-87497a2ba863"/>
				</subject>
				<taken value="y"/>
				<reasonCode>
					<coding>
						<system value="http://snomed.info/sct"/>
						<code value="44186003"/>
						<display value="Dyssomnia"/>
					</coding>
				</reasonCode>
				<dosage>
					<text value="1 x 10mg tablet"/>
					<additionalInstruction>
						<text value="To be taken one hour before bed."/>
					</additionalInstruction>
					<timing>
						<repeat>
							<frequency value="1"/>
							<period value="1"/>
							<periodUnit value="d"/>
						</repeat>
					</timing>
					<asNeededBoolean value="false"/>
					<route>
						<coding>
							<system value="http://snomed.info/sct"/>
							<code value="26643006"/>
							<display value="Oral"/>
						</coding>
					</route>
					<doseQuantity>
						<value value="10"/>
						<unit value="mg"/>
						<system value="http://unitsofmeasure.org"/>
						<code value="mg"/>
					</doseQuantity>
				</dosage>
			</MedicationStatement>
		</resource>
	</entry>
	<!--Medication Example 1-->
	<entry>
		<fullUrl value="urn:uuid:e02e3f74-8635-46ca-bd48-83deaffeb510"/>
		<resource>
			<Medication>
				<id value="e02e3f74-8635-46ca-bd48-83deaffeb510"/>
				<meta>
					<profile value="https://fhir.hl7.org.uk/STU3/StructureDefinition/CareConnect-Medication-1"/>
				</meta>
				<code>
					<coding>
						<system value="http://snomed.info/sct"/>
						<code value="321745007"/>
						<display value="Amitriptyline 10mg tablets"/>
					</coding>
				</code>
			</Medication>
		</resource>
	</entry>
	<!--Medication Flag Example 1-->
	<entry>
		<fullUrl value="urn:uuid:2d3ae8e2-db14-41ec-9cd4-56174cdf764d"/>
		<resource>
			<Flag>
				<id value="2d3ae8e2-db14-41ec-9cd4-56174cdf764d"/>
				<meta>
					<profile value="https://fhir.nhs.uk/STU3/StructureDefinition/CareConnect-ITK-Medication-Flag-1"/>
				</meta>
				<!--This references the MedicationStatement.-->
				<extension url="https://fhir.nhs.uk/STU3/StructureDefinition/Extension-CareConnect-ITK-MedicationFlagAssociation-1">
					<valueReference>
						<reference value="urn:uuid:5da7d137-1e94-4b83-ab6c-1af2c3edfaf0"/>
					</valueReference>
				</extension>
				<identifier>
					<system value="https://tools.ietf.org/html/rfc4122"/>
					<value value="70d4afcc-a44d-49d3-b995-fca96bf56fe3"/>
				</identifier>
				<status value="active"/>
				<category>
					<coding>
						<system value="http://hl7.org/fhir/flag-category"/>
						<code value="drug"/>
						<display value="Drug"/>
					</coding>
				</category>
				<code>
					<coding>
						<system value="https://fhir.hl7.org.uk/STU3/CareConnect-MedicationFlag-1"/>
						<code value="continue-indefinitely"/>
						<display value="Continue Indefinitely"/>
					</coding>
				</code>
				<subject>
					<reference value="urn:uuid:159c7259-4253-4e21-90c7-87497a2ba863"/>
				</subject>
			</Flag>
		</resource>
	</entry>
	<!--Diagnoses 1-->
	<entry>
		<fullUrl value="urn:uuid:25682e5b-1453-42ae-b830-091f75dedbd3"/>
		<resource>
			<Condition>
				<id value="25682e5b-1453-42ae-b830-091f75dedbd3"/>
				<meta>
					<profile value="https://fhir.nhs.uk/STU3/StructureDefinition/CareConnect-ITK-Condition-1"/>
				</meta>
				<identifier>
					<system value="https://tools.ietf.org/html/rfc4122"/>
					<value value="bc8e4fc0-18dc-46b5-9f60-30857b24e42b"/>
				</identifier>
				<clinicalStatus value="active"/>
				<verificationStatus value="confirmed"/>
				<category>
					<coding>
						<system value="https://fhir.hl7.org.uk/STU3/CareConnect-ConditionCategory-1"/>
						<code value="diagnosis"/>
						<display value="Diagnosis"/>
					</coding>
				</category>
				<code>
					<coding>
						<system value="http://snomed.info/sct"/>
						<code value="35678005"/>
						<display value="Multiple joint pain"/>
					</coding>
				</code>
				<subject>
					<reference value="urn:uuid:159c7259-4253-4e21-90c7-87497a2ba863"/>
				</subject>
				<!--Reference to the encounter-->
				<context>
					<reference value="urn:uuid:a5c73078-72e8-4c2b-a4f6-a3fdcc53b39e"/>
				</context>
				<assertedDate value="2017-05-11"/>
				<asserter>
					<reference value="urn:uuid:619ac49c-9409-4979-8594-c47d33ef6bfc"/>
				</asserter>
			</Condition>
		</resource>
	</entry>
	<!--Diagnoses 2-->
	<entry>
		<fullUrl value="urn:uuid:c96be778-49bc-4dfb-be11-66be679b7995"/>
		<resource>
			<Condition>
				<id value="c96be778-49bc-4dfb-be11-66be679b7995"/>
				<meta>
					<profile value="https://fhir.nhs.uk/STU3/StructureDefinition/CareConnect-ITK-Condition-1"/>
				</meta>
				<identifier>
					<system value="https://tools.ietf.org/html/rfc4122"/>
					<value value="9b5bfd05-4359-4639-93eb-28f13542013f"/>
				</identifier>
				<clinicalStatus value="active"/>
				<verificationStatus value="confirmed"/>
				<category>
					<coding>
						<system value="https://fhir.hl7.org.uk/STU3/CareConnect-ConditionCategory-1"/>
						<code value="diagnosis"/>
						<display value="Diagnosis"/>
					</coding>
				</category>
				<code>
					<coding>
						<system value="http://snomed.info/sct"/>
						<code value="84229001"/>
						<display value="Fatigue"/>
					</coding>
					<text value="Fatigue. No evidence of inflammatory arthritis."/>
				</code>
				<subject>
					<reference value="urn:uuid:159c7259-4253-4e21-90c7-87497a2ba863"/>
				</subject>
				<!--Reference to the encounter-->
				<context>
					<reference value="urn:uuid:a5c73078-72e8-4c2b-a4f6-a3fdcc53b39e"/>
				</context>
				<assertedDate value="2017-05-11"/>
				<asserter>
					<reference value="urn:uuid:619ac49c-9409-4979-8594-c47d33ef6bfc"/>
				</asserter>
			</Condition>
		</resource>
	</entry>
	<!--Diagnoses 3-->
	<entry>
		<fullUrl value="urn:uuid:cda3f927-135f-4295-a8ba-174b11330204"/>
		<resource>
			<Condition>
				<id value="cda3f927-135f-4295-a8ba-174b11330204"/>
				<meta>
					<profile value="https://fhir.nhs.uk/STU3/StructureDefinition/CareConnect-ITK-Condition-1"/>
				</meta>
				<identifier>
					<system value="https://tools.ietf.org/html/rfc4122"/>
					<value value="65f0aa98-0e45-43fd-ab67-7b570a3fabcf"/>
				</identifier>
				<clinicalStatus value="active"/>
				<verificationStatus value="confirmed"/>
				<category>
					<coding>
						<system value="https://fhir.hl7.org.uk/STU3/CareConnect-ConditionCategory-1"/>
						<code value="diagnosis"/>
						<display value="Diagnosis"/>
					</coding>
				</category>
				<code>
					<coding>
						<system value="http://snomed.info/sct"/>
						<code value="46635009"/>
						<display value="Type 1 diabetes mellitus"/>
					</coding>
				</code>
				<subject>
					<reference value="urn:uuid:159c7259-4253-4e21-90c7-87497a2ba863"/>
				</subject>
				<!--Reference to the encounter-->
				<context>
					<reference value="urn:uuid:a5c73078-72e8-4c2b-a4f6-a3fdcc53b39e"/>
				</context>
				<assertedDate value="2017-05-11"/>
				<asserter>
					<reference value="urn:uuid:619ac49c-9409-4979-8594-c47d33ef6bfc"/>
				</asserter>
			</Condition>
		</resource>
	</entry>
	<!--Diagnoses 4-->
	<entry>
		<fullUrl value="urn:uuid:c3239ef6-1ed4-4ca4-9db9-d4589c1cdcad"/>
		<resource>
			<Condition>
				<id value="c3239ef6-1ed4-4ca4-9db9-d4589c1cdcad"/>
				<meta>
					<profile value="https://fhir.nhs.uk/STU3/StructureDefinition/CareConnect-ITK-Condition-1"/>
				</meta>
				<identifier>
					<system value="https://tools.ietf.org/html/rfc4122"/>
					<value value="65f0aa98-0e45-43fd-ab67-7b570a3fabcf"/>
				</identifier>
				<clinicalStatus value="active"/>
				<verificationStatus value="confirmed"/>
				<category>
					<coding>
						<system value="https://fhir.hl7.org.uk/STU3/CareConnect-ConditionCategory-1"/>
						<code value="diagnosis"/>
						<display value="Diagnosis"/>
					</coding>
				</category>
				<code>
					<coding>
						<system value="http://snomed.info/sct"/>
						<code value="40930008"/>
						<display value="Hypothyroidism"/>
					</coding>
				</code>
				<subject>
					<reference value="urn:uuid:159c7259-4253-4e21-90c7-87497a2ba863"/>
				</subject>
				<!--Reference to the encounter-->
				<context>
					<reference value="urn:uuid:a5c73078-72e8-4c2b-a4f6-a3fdcc53b39e"/>
				</context>
				<assertedDate value="2017-05-11"/>
				<asserter>
					<reference value="urn:uuid:619ac49c-9409-4979-8594-c47d33ef6bfc"/>
				</asserter>
			</Condition>
		</resource>
	</entry>
	<!--Patient-Example-1-->
	<entry>
		<fullUrl value="urn:uuid:159c7259-4253-4e21-90c7-87497a2ba863"/>
		<resource>
			<Patient>
				<id value="159c7259-4253-4e21-90c7-87497a2ba863"/>
				<meta>
					<profile value="https://fhir.hl7.org.uk/STU3/StructureDefinition/CareConnect-Patient-1"/>
				</meta>
				<extension url="https://fhir.hl7.org.uk/STU3/StructureDefinition/Extension-CareConnect-EthnicCategory-1">
					<valueCodeableConcept>
						<coding>
							<system value="https://fhir.hl7.org.uk/STU3/CareConnect-EthnicCategory-1"/>
							<code value="CA"/>
							<display value="English"/>
						</coding>
					</valueCodeableConcept>
				</extension>
				<extension url="http://hl7.org/fhir/StructureDefinition/patient-cadavericDonor">
					<valueBoolean value="false"/>
				</extension>
				<extension url="https://fhir.hl7.org.uk/STU3/StructureDefinition/Extension-CareConnect-ResidentialStatus-1">
					<valueCodeableConcept>
						<coding>
							<system value="https://fhir.hl7.org.uk/STU3/CareConnect-ResidentialStatus-1"/>
							<code value="H"/>
							<display value="UK Resident"/>
						</coding>
					</valueCodeableConcept>
				</extension>
				<extension url="https://fhir.hl7.org.uk/STU3/StructureDefinition/Extension-CareConnect-TreatmentCategory-1">
					<valueCodeableConcept>
						<coding>
							<system value="https://fhir.hl7.org.uk/STU3/CareConnect-TreatmentCategory-1"/>
							<code value="8"/>
							<display value="Not applicable"/>
						</coding>
					</valueCodeableConcept>
				</extension>
				<extension url="https://fhir.hl7.org.uk/STU3/StructureDefinition/Extension-CareConnect-NHSCommunication-1">
					<extension url="language">
						<valueCodeableConcept>
							<coding>
								<system value="https://fhir.hl7.org.uk/STU3/CareConnect-HumanLanguage-1"/>
								<code value="en"/>
								<display value="English"/>
							</coding>
						</valueCodeableConcept>
					</extension>
					<extension url="preferred">
						<valueBoolean value="true"/>
					</extension>
					<extension url="modeOfCommunication">
						<valueCodeableConcept>
							<coding>
								<system value="https://fhir.hl7.org.uk/STU3/CareConnect-LanguageAbilityMode-1"/>
								<code value="ESP"/>
								<display value="Expressed spoken"/>
							</coding>
						</valueCodeableConcept>
					</extension>
					<extension url="modeOfCommunication">
						<valueCodeableConcept>
							<coding>
								<system value="https://fhir.hl7.org.uk/STU3/CareConnect-LanguageAbilityMode-1"/>
								<code value="RWR"/>
								<display value="Received written"/>
							</coding>
						</valueCodeableConcept>
					</extension>
					<extension url="communicationProficiency">
						<valueCodeableConcept>
							<coding>
								<system value="https://fhir.hl7.org.uk/STU3/CareConnect-LanguageAbilityProficiency-1"/>
								<code value="E"/>
								<display value="Excellent"/>
							</coding>
						</valueCodeableConcept>
					</extension>
					<extension url="interpreterRequired">
						<valueBoolean value="false"/>
					</extension>
				</extension>
				<identifier>
					<extension url="https://fhir.hl7.org.uk/STU3/StructureDefinition/Extension-CareConnect-NHSNumberVerificationStatus-1">
						<valueCodeableConcept>
							<coding>
								<system value="https://fhir.hl7.org.uk/STU3/CareConnect-NHSNumberVerificationStatus-1"/>
								<code value="01"/>
								<display value="Number present and verified"/>
							</coding>
						</valueCodeableConcept>
					</extension>
					<system value="https://fhir.nhs.uk/Id/nhs-number"/>
					<value value="12435111"/>
				</identifier>
				<identifier>
					<system value="https://fhir.nhs.uk/Id/local-patient-identifier"/>
					<value value="TL89711"/>
				</identifier>
				<active value="true"/>
				<name>
					<use value="usual"/>
					<family value="Margaret"/>
					<given value="Walker"/>
					<prefix value="Mrs"/>
				</name>
				<telecom>
					<system value="phone"/>
					<value value="077 1234 1111"/>
					<use value="mobile"/>
				</telecom>
				<telecom>
					<system value="email"/>
					<value value="margaret@walker.net"/>
					<use value="home"/>
				</telecom>
				<gender value="female"/>
				<birthDate value="1964-02-01"/>
				<address>
					<use value="home"/>
					<line value="30 Acacia Road"/>
					<postalCode value="BM9 6PL"/>
				</address>
			</Patient>
		</resource>
	</entry>
	<!--Practitioner-Example-2-->
	<entry>
		<fullUrl value="urn:uuid:251b960d-3a48-405b-9061-44d51fbf352b"/>
		<resource>
			<Practitioner>
				<id value="251b960d-3a48-405b-9061-44d51fbf352b"/>
				<meta>
					<profile value="https://fhir.hl7.org.uk/STU3/StructureDefinition/CareConnect-Practitioner-1"/>
				</meta>
				<name>
					<family value="O'Reilly"/>
					<given value="C"/>
					<prefix value="Dr"/>
				</name>
				<telecom>
					<system value="phone"/>
					<value value="01234 956412"/>
					<use value="work"/>
				</telecom>
			</Practitioner>
		</resource>
	</entry>
	<!--Practitioner role - General Medical Practitioner-->
	<entry>
		<fullUrl value="urn:uuid:81ebf8a3-f96a-426a-893b-0b81fcaec59d"/>
		<resource>
			<PractitionerRole>
				<id value="81ebf8a3-f96a-426a-893b-0b81fcaec59d"/>
				<meta>
					<profile value="https://fhir.hl7.org.uk/STU3/StructureDefinition/CareConnect-PractitionerRole-1"/>
				</meta>
				<practitioner>
					<reference value="urn:uuid:251b960d-3a48-405b-9061-44d51fbf352b"/>
				</practitioner>
				<organization>
					<reference value="urn:uuid:2f63f514-d18c-4f45-8c3e-696621271def"/>
				</organization>
				<code>
					<coding>
						<system value="https://fhir.hl7.org.uk/STU3/CareConnect-SDSJobRoleName-1"/>
						<code value="R0260"/>
						<display value="General Medical Practitioner"/>
					</coding>
				</code>
			</PractitionerRole>
		</resource>
	</entry>
	<!--Practitioner roles -Consultant-->
	<entry>
		<fullUrl value="urn:uuid:7d071f2c-6c2e-4a1b-befe-55ff24745985"/>
		<resource>
			<PractitionerRole>
				<id value="7d071f2c-6c2e-4a1b-befe-55ff24745985"/>
				<meta>
					<profile value="https://fhir.hl7.org.uk/STU3/StructureDefinition/CareConnect-PractitionerRole-1"/>
				</meta>
				<practitioner>
					<reference value="urn:uuid:619ac49c-9409-4979-8594-c47d33ef6bfc"/>
				</practitioner>
				<organization>
					<reference value="urn:uuid:3faff938-09cb-4409-bd20-0c47d2fbdf6e"/>
				</organization>
				<code>
					<coding>
						<system value="https://fhir.hl7.org.uk/STU3/CareConnect-SDSJobRoleName-1"/>
						<code value="R0050"/>
						<display value="Consultant"/>
					</coding>
				</code>
			</PractitionerRole>
		</resource>
	</entry>
	<!--Practitioner-Example-3-->
	<entry>
		<fullUrl value="urn:uuid:296a7f30-033f-4f31-b846-0c2e85836428"/>
		<resource>
			<Practitioner>
				<id value="296a7f30-033f-4f31-b846-0c2e85836428"/>
				<meta>
					<profile value="https://fhir.hl7.org.uk/STU3/StructureDefinition/CareConnect-Practitioner-1"/>
				</meta>
				<name>
					<family value="Snodgrass"/>
					<given value="Susan"/>
				</name>
				<address>
					<use value="work"/>
					<line value="Community Macmillan Team"/>
					<line value="Endowdown Centre"/>
					<postalCode value="BM5 0TP "/>
				</address>
			</Practitioner>
		</resource>
	</entry>
	<!--Practitioner role - Community Macmillan team-->
	<entry>
		<fullUrl value="urn:uuid:ef4f6df5-5081-4684-9239-b440c2169a9e"/>
		<resource>
			<PractitionerRole>
				<id value="ef4f6df5-5081-4684-9239-b440c2169a9e"/>
				<meta>
					<profile value="https://fhir.hl7.org.uk/STU3/StructureDefinition/CareConnect-PractitionerRole-1"/>
				</meta>
				<practitioner>
					<reference value="urn:uuid:296a7f30-033f-4f31-b846-0c2e85836428"/>
				</practitioner>
				<organization>
					<reference value="urn:uuid:0cd724c5-77a2-41fd-9428-bf606e5c8d31"/>
				</organization>
				<code>
					<coding>
						<system value="https://fhir.hl7.org.uk/STU3/CareConnect-SDSJobRoleName-1"/>
						<code value="R1976"/>
						<display value="Community Team Manager"/>
					</coding>
				</code>
			</PractitionerRole>
		</resource>
	</entry>
	<!--Practitioner-Example-4-->
	<entry>
		<fullUrl value="urn:uuid:d3767dcf-8211-41ce-a07f-906c0399c757"/>
		<resource>
			<Practitioner>
				<id value="d3767dcf-8211-41ce-a07f-906c0399c757"/>
				<meta>
					<profile value="https://fhir.hl7.org.uk/STU3/StructureDefinition/CareConnect-Practitioner-1"/>
				</meta>
				<name>
					<family value="Hawkins"/>
					<prefix value="Professor"/>
				</name>
				<address>
					<use value="work"/>
					<line value="Oncology Department"/>
					<line value="St. Crispin's Hospital"/>
					<city value="Donaldstown"/>
					<postalCode value="DO5 7TP"/>
				</address>
			</Practitioner>
		</resource>
	</entry>
	<!--Practitioner role - 4-->
	<entry>
		<fullUrl value="urn:uuid:ef4f6df5-5081-4684-9239-b440c2169a9e"/>
		<resource>
			<PractitionerRole>
				<id value="ef4f6df5-5081-4684-9239-b440c2169a9e"/>
				<meta>
					<profile value="https://fhir.hl7.org.uk/STU3/StructureDefinition/CareConnect-PractitionerRole-1"/>
				</meta>
				<practitioner>
					<reference value="urn:uuid:d3767dcf-8211-41ce-a07f-906c0399c757"/>
				</practitioner>
				<organization>
					<reference value="urn:uuid:3faff938-09cb-4409-bd20-0c47d2fbdf6e"/>
				</organization>
				<code>
					<coding>
						<system value="https://fhir.hl7.org.uk/STU3/CareConnect-SDSJobRoleName-1"/>
						<code value="R0050"/>
						<display value="Consultant"/>
					</coding>
				</code>
				<specialty>
					<coding>
						<system value="http://snomed.info/sct"/>
						<code value="394593009"/>
						<display value="Medical oncology"/>
					</coding>
				</specialty>
			</PractitionerRole>
		</resource>
	</entry>
	<!--Practitioner-Example-5-->
	<entry>
		<fullUrl value="urn:uuid:d3767dcf-8211-41ce-a07f-906c0399c757"/>
		<resource>
			<Practitioner>
				<id value="d3767dcf-8211-41ce-a07f-906c0399c757"/>
				<meta>
					<profile value="https://fhir.hl7.org.uk/STU3/StructureDefinition/CareConnect-Practitioner-1"/>
				</meta>
				<name>
					<family value="Bromage"/>
					<prefix value="Mr"/>
				</name>
				<address>
					<use value="work"/>
					<line value="Urology Department"/>
					<line value="St. Crispin's Hospital"/>
					<city value="Donaldstown"/>
					<postalCode value="DO5 7TP"/>
				</address>
			</Practitioner>
		</resource>
	</entry>
	<!--Practitioner role - 5-->
	<entry>
		<fullUrl value="urn:uuid:889a476e-279a-4e2f-a2ce-a9ca75df33de"/>
		<resource>
			<PractitionerRole>
				<id value="889a476e-279a-4e2f-a2ce-a9ca75df33de"/>
				<meta>
					<profile value="https://fhir.hl7.org.uk/STU3/StructureDefinition/CareConnect-PractitionerRole-1"/>
				</meta>
				<practitioner>
					<reference value="urn:uuid:d3767dcf-8211-41ce-a07f-906c0399c757"/>
				</practitioner>
				<organization>
					<reference value="urn:uuid:3faff938-09cb-4409-bd20-0c47d2fbdf6e"/>
				</organization>
				<code>
					<coding>
						<system value="https://fhir.hl7.org.uk/STU3/CareConnect-SDSJobRoleName-1"/>
						<code value="R0050"/>
						<display value="Consultant"/>
					</coding>
				</code>
				<specialty>
					<coding>
						<system value="http://snomed.info/sct"/>
						<code value="394612005"/>
						<display value="Urology"/>
					</coding>
				</specialty>
			</PractitionerRole>
		</resource>
	</entry>
	<!--Organization-Example-1-->
	<entry>
		<fullUrl value="urn:uuid:2f63f514-d18c-4f45-8c3e-696621271def"/>
		<resource>
			<Organization>
				<id value="2f63f514-d18c-4f45-8c3e-696621271def"/>
				<meta>
					<profile value="https://fhir.hl7.org.uk/STU3/StructureDefinition/CareConnect-Organization-1"/>
				</meta>
				<identifier>
					<system value="https://fhir.nhs.uk/Id/ods-organization-code"/>
					<value value="A111111"/>
				</identifier>
				<type>
					<coding>
						<system value="http://hl7.org/fhir/organization-type"/>
						<code value="prov"/>
						<display value="Healthcare Provider"/>
					</coding>
				</type>
				<name value="Canvas Health Centre"/>
				<telecom>
					<system value="email"/>
					<value value="Admin@MMC.co.uk"/>
				</telecom>
				<address>
					<use value="work"/>
					<line value="27 Acacia Road"/>
					<postalCode value="BM9 6PM"/>
				</address>
			</Organization>
		</resource>
	</entry>
	<!--Organization-Example-2-->
	<entry>
		<fullUrl value="urn:uuid:3faff938-09cb-4409-bd20-0c47d2fbdf6e"/>
		<resource>
			<Organization>
				<id value="3faff938-09cb-4409-bd20-0c47d2fbdf6e"/>
				<meta>
					<profile value="https://fhir.hl7.org.uk/STU3/StructureDefinition/CareConnect-Organization-1"/>
				</meta>
				<identifier>
					<system value="https://fhir.nhs.uk/Id/ods-organization-code"/>
					<value value="RX0000"/>
				</identifier>
				<type>
					<coding>
						<system value="http://hl7.org/fhir/organization-type"/>
						<code value="prov"/>
						<display value="Healthcare Provider"/>
					</coding>
				</type>
				<name value="St Crispin's Hospital"/>
				<telecom>
					<system value="phone"/>
					<value value="01234 567890"/>
					<use value="work"/>
				</telecom>
				<address>
					<line value="St Crispin's Hospital"/>
					<line value="Donaldstown"/>
					<postalCode value="DO5 7TP"/>
				</address>
			</Organization>
		</resource>
	</entry>
	<!--Organization-Example-Community Macmillan Team -->
	<entry>
		<fullUrl value="urn:uuid:0cd724c5-77a2-41fd-9428-bf606e5c8d31"/>
		<resource>
			<Organization>
				<id value="0cd724c5-77a2-41fd-9428-bf606e5c8d31"/>
				<meta>
					<profile value="https://fhir.hl7.org.uk/STU3/StructureDefinition/CareConnect-Organization-1"/>
				</meta>
				<identifier>
					<system value="https://fhir.nhs.uk/Id/ods-organization-code"/>
					<value value="RY5555"/>
				</identifier>
				<type>
					<coding>
						<system value="http://hl7.org/fhir/organization-type"/>
						<code value="prov"/>
						<display value="Healthcare Provider"/>
					</coding>
				</type>
				<name value="Community Macmillan Team"/>
				<address>
					<line value="Community Macmillan Team"/>
					<line value="Endowdown Centre"/>
					<postalCode value="BM5 0TP"/>
				</address>
			</Organization>
		</resource>
	</entry>
	<entry>
		<fullUrl value="urn:uuid:5824d803-9adb-4fa8-9cba-11a0ea9105d0"/>
		<resource>
			<List>
				<id value="5824d803-9adb-4fa8-9cba-11a0ea9105d0"/>
				<meta>
					<profile value="https://fhir.nhs.uk/STU3/StructureDefinition/ITK-Allergies-List-1"/>
				</meta>
				<identifier>
					<system value="https://tools.ietf.org/html/rfc4122"/>
					<value value="0be34de6-c99e-459f-a7e5-3f668dbe54f3"/>
				</identifier>
				<status value="current"/>
				<mode value="snapshot"/>
				<code>
					<coding>
						<system value="http://hl7.org/fhir/list-example-use-codes"/>
						<code value="allergies"/>
						<display value="Allergies"/>
					</coding>
				</code>
				<subject>
					<reference value="urn:uuid:159c7259-4253-4e21-90c7-87497a2ba863"/>
				</subject>
				<emptyReason>
					<coding>
						<system value="http://snomed.info/sct"/>
						<code value="716186003"/>
						<display value="No known allergy"/>
					</coding>
				</emptyReason>
			</List>
		</resource>
	</entry>
	<!--Procedure Example-->
	<entry>
		<fullUrl value="urn:uuid:4cdce895-3fc2-48bd-a0c9-6215deff251e"/>
		<resource>
			<Procedure>
				<id value="4cdce895-3fc2-48bd-a0c9-6215deff251e"/>
				<meta>
					<profile value="https://fhir.nhs.uk/STU3/StructureDefinition/CareConnect-ITK-Procedure-1"/>
				</meta>
				<extension url="https://fhir.hl7.org.uk/STU3/StructureDefinition/Extension-CareConnect-DateRecorded-1">
					<valueDateTime value="2017-05-11"/>
				</extension>
				<identifier>
					<system value="https://tools.ietf.org/html/rfc4122"/>
					<value value="6e5716ac-f4ff-455b-8ac9-bc28c1a0461d"/>
				</identifier>
				<status value="completed"/>
				<code>
					<coding>
						<system value="http://snomed.info/sct"/>
						<code value="5733007"/>
						<display value="Fluorescent identification of anti-nuclear antibody"/>
					</coding>
				</code>
				<subject>
					<reference value="urn:uuid:159c7259-4253-4e21-90c7-87497a2ba863"/>
				</subject>
				<performedDateTime value="2017-05-11T14:38:00+00:00"/>
				<!--Reference to the condition which is the reason why this procedure has been performed-->
				<reasonReference>
					<reference value="urn:uuid:25682e5b-1453-42ae-b830-091f75dedbd3"/>
				</reasonReference>
			</Procedure>
		</resource>
	</entry>
	<!--observation for occupation-->
	<entry>
		<fullUrl value="urn:uuid:3da3e1b0-76a6-411f-9b56-d19b73f8d901"/>
		<resource>
			<Observation>
				<id value="3da3e1b0-76a6-411f-9b56-d19b73f8d901"/>
				<meta>
					<profile value="https://fhir.nhs.uk/STU3/StructureDefinition/CareConnect-ITK-OccupationalHistory-Observation-1"/>
				</meta>
				<identifier>
					<system value="https://tools.ietf.org/html/rfc4122"/>
					<value value="2e320870-f8b5-4f6a-9498-a1eef6e99202"/>
				</identifier>
				<status value="final"/>
				<code>
					<coding>
						<system value="http://snomed.info/sct"/>
						<code value="14679004"/>
						<display value="Occupation"/>
					</coding>
				</code>
				<subject>
					<reference value="urn:uuid:159c7259-4253-4e21-90c7-87497a2ba863"/>
				</subject>
				<effectivePeriod>
					<start value="2012-06-01"/>
				</effectivePeriod>
				<performer>
					<reference value="urn:uuid:619ac49c-9409-4979-8594-c47d33ef6bfc"/>
				</performer>
				<valueCodeableConcept>
					<coding>
						<system value="http://snomed.info/sct"/>
						<code value="73438004"/>
						<display value="Unemployed"/>
					</coding>
				</valueCodeableConcept>
			</Observation>
		</resource>
	</entry>
</Bundle>
