<?xml version="1.0" encoding="UTF-8"?>
<Bundle xmlns="http://hl7.org/fhir">
 <id value="8a0eea66-b4b5-48d0-9b34-a863863f79e9"/>
 <meta>
  <profile value="https://fhir.nhs.uk/STU3/StructureDefinition/ITK-Message-Bundle-1"/>
 </meta>
 <identifier>
  <value value="65fa69b8-7276-461e-a67e-04e2e29cd407"/>
 </identifier>
 <type value="message"/>
 <entry>
  <fullUrl value="urn:uuid:a4409d7c-b613-477c-b623-87e60406c2f0"/>
  <resource>
   <MessageHeader>
    <id value="a4409d7c-b613-477c-b623-87e60406c2f0"/>
    <meta>
     <profile value="https://fhir.nhs.uk/STU3/StructureDefinition/ITK-MessageHeader-2"/>
    </meta>
    <extension url="https://fhir.nhs.uk/STU3/StructureDefinition/Extension-ITK-MessageHandling-2">
     <extension url="InfAckRequested">
      <valueBoolean value="true"/>
     </extension>
    </extension>
    <event>
     <system value="https://fhir.nhs.uk/STU3/CodeSystem/ITK-MessageEvent-2"/>
     <code value="ITK002M"/>
     <display value="ITK Business Acknowledgement"/>
    </event>
    <sender>
     <reference value="urn:uuid:6a607ff6-bdb0-4db0-ac8f-152971101a68"/>
    </sender>
    <timestamp value="2017-01-23T10:10:16+00:00"/>
    <source>
     <endpoint value="1.2.826.0.1285.0.2.0.107"/>
    </source>
    <response>
     <identifier value="cf5e5969-2a93-400f-bf6f-709f101bcf87"/>
     <code value="ok"/>
     <details>
      <reference value="urn:uuid:966de33c-dbf7-4b58-aac1-7f161e981e2c"/>
     </details>
    </response>
    <focus>
     <reference value="urn:uuid:966de33c-dbf7-4b58-aac1-7f161e981e2c"/>
    </focus>
   </MessageHeader>
  </resource>
 </entry>
 <!--Practitioner-->
 <entry>
  <fullUrl value="urn:uuid:6a607ff6-bdb0-4db0-ac8f-152971101a68"/>
  <resource>
   <Practitioner>
    <id value="6a607ff6-bdb0-4db0-ac8f-152971101a68"/>
    <meta>
     <profile value="https://fhir.nhs.uk/STU3/StructureDefinition/CareConnect-ITK-Header-Practitioner-1"/>
    </meta>
    <identifier>
     <system value="https://fhir.nhs.uk/Id/sds-user-id"/>
     <value value="099945750518"/>
    </identifier>
    <name>
     <family value="Socrates"/>
     <given value="Diane"/>
     <prefix value="Dr"/>
    </name>
   </Practitioner>
  </resource>
 </entry>
 <entry>
  <fullUrl value="urn:uuid:966de33c-dbf7-4b58-aac1-7f161e981e2c"/>
  <resource>
   <OperationOutcome>
    <id value="966de33c-dbf7-4b58-aac1-7f161e981e2c"/>
    <meta>
     <profile value="https://fhir.nhs.uk/STU3/StructureDefinition/ITK-Busack-OperationOutcome-1"/>
    </meta>
    <issue>
     <severity value="information"/>
     <code value="informational"/>
     <details>
      <coding>
       <system value="https://fhir.nhs.uk/STU3/CodeSystem/ITK-Acknowledgement-1"/>
       <code value="20013"/>
       <display value="Success"/>
      </coding>
     </details>
    </issue>
   </OperationOutcome>
  </resource>
 </entry>
</Bundle>
