<?xml version="1.0" encoding="UTF-8"?>
<Bundle xmlns="http://hl7.org/fhir">
	<id value="1727d702-6c9a-4bb9-91a2-4f8034655635"/>
	<meta>
		<profile value="https://fhir.nhs.uk/STU3/StructureDefinition/ITK-Message-Bundle-1"/>
	</meta>
	<identifier>
		<value value="9918442c-deb0-44d0-bd80-741016eabba2"/>
	</identifier>
	<type value="message"/>
	<entry>
		<fullUrl value="urn:uuid:a2a4e566-097f-11e7-93ae-92361f002671"/>
		<resource>
			<MessageHeader>
				<id value="a2a4e566-097f-11e7-93ae-92361f002671"/>
				<meta>
					<profile value="https://fhir.nhs.uk/STU3/StructureDefinition/ITK-MessageHeader-2"/>
				</meta>
				<extension url="https://fhir.nhs.uk/STU3/StructureDefinition/Extension-ITK-MessageHandling-2">
					<extension url="InfAckRequested">
						<valueBoolean value="true"/>
					</extension>
				</extension>
				<event>
					<system value="https://fhir.nhs.uk/STU3/CodeSystem/ITK-MessageEvent-2"/>
					<code value="ITK008M"/>
					<display value="ITK Response"/>
				</event>
				<sender>
					<reference value="urn:uuid:1f0f66e6-f3b9-4092-a493-d635dbf4dacf"/>
				</sender>
				<timestamp value="2017-01-23T10:11:15+00:00"/>
				<source>
					<endpoint value="1.2.826.0.1285.0.2.0.107"/>
				</source>
				<response>
					<identifier value="ea7221b8-3cc0-4b11-bc95-585b056b5427"/>
					<code value="fatal-error"/>
					<details>
						<reference value="urn:uuid:f19e4165-b379-4377-ad43-df65f609eba5"/>
					</details>
				</response>
				<focus>
					<reference value="urn:uuid:f19e4165-b379-4377-ad43-df65f609eba5"/>
				</focus>
			</MessageHeader>
		</resource>
	</entry>
	<!--Practitioner-->
	<entry>
		<fullUrl value="urn:uuid:1f0f66e6-f3b9-4092-a493-d635dbf4dacf"/>
		<resource>
			<Practitioner>
				<id value="1f0f66e6-f3b9-4092-a493-d635dbf4dacf"/>
				<meta>
					<profile value="https://fhir.nhs.uk/STU3/StructureDefinition/CareConnect-ITK-Header-Practitioner-1"/>
				</meta>
				<identifier>
					<system value="https://fhir.nhs.uk/Id/sds-user-id"/>
					<value value="099945750518"/>
				</identifier>
				<name>
					<family value="Socrates"/>
					<given value="Diane"/>
					<prefix value="Dr"/>
				</name>
			</Practitioner>
		</resource>
	</entry>
	<entry>
		<fullUrl value="urn:uuid:f19e4165-b379-4377-ad43-df65f609eba5"/>
		<resource>
			<OperationOutcome>
				<id value="f19e4165-b379-4377-ad43-df65f609eba5"/>
				<meta>
					<profile value="https://fhir.nhs.uk/STU3/StructureDefinition/ITK-Response-OperationOutcome-1"/>
				</meta>
				<issue>
					<severity value="fatal"/>
					<code value="processing"/>
					<details>
						<coding>
							<system value="https://fhir.nhs.uk/STU3/CodeSystem/ITK-ResponseCodes-1"/>
							<code value="10004"/>
							<display value="Message Definition Value – Processing Error"/>
						</coding>
					</details>
				</issue>
			</OperationOutcome>
		</resource>
	</entry>
</Bundle>
