<?xml version="1.0" encoding="UTF-8"?>
<!--This xml example is for illustrative purposes only and has not been clinically verified-->
<Bundle xmlns="http://hl7.org/fhir" xmlns:xsi="http://www.w3.org/2001/XMLSchema-instance" xsi:schemaLocation="http://hl7.org/fhir file:///C:/GitHubRepo/ITK-FHIR-Outpatient-Letter/schemas/bundle.xsd">
 <id value="eab677e7-6503-4224-b543-e5df20a4efe1"/>
 <meta>
  <profile value="https://fhir.nhs.uk/STU3/StructureDefinition/ITK-Document-Bundle-1"/>
 </meta>
 <identifier>
  <system value="https://tools.ietf.org/html/rfc4122"/>
  <value value="fa7b0d14-2596-497e-b31c-abeaede9bce3"/>
 </identifier>
 <type value="document"/>
 <!--Outpatient Letter Composition-->
 <entry>
  <fullUrl value="urn:uuid:286bfe88-8d90-489d-9eef-8c00e2731470"/>
  <resource>
   <Composition>
    <id value="286bfe88-8d90-489d-9eef-8c00e2731470"/>
    <meta>
     <profile value="https://fhir.nhs.uk/STU3/StructureDefinition/ITK-OPL-Composition-1"/>
    </meta>
    <extension url="https://fhir.nhs.uk/STU3/StructureDefinition/Extension-ITK-CareSettingType-1">
     <valueCodeableConcept>
      <coding>
       <system value="http://snomed.info/sct"/>
       <code value="893641000000102"/>
       <display value="Palliative medicine service"/>
      </coding>
     </valueCodeableConcept>
    </extension>
    <identifier>
     <value value="386f8c09-1139-4c3a-bce1-c0e20b557f18"/>
    </identifier>
    <status value="final"/>
    <type>
     <!--Outpatient letter-->
     <coding>
      <system value="http://snomed.info/sct"/>
      <code value="823681000000100"/>
      <display value="Outpatient letter"/>
     </coding>
    </type>
    <subject>
     <reference value="urn:uuid:159c7259-4253-4e21-90c7-87497a2ba863"/>
    </subject>
    <!--Reference to the clinical encounter or type of care this documentation is associated with.-->
    <encounter>
     <reference value="urn:uuid:a5c73078-72e8-4c2b-a4f6-a3fdcc53b39e"/>
    </encounter>
    <!--The composition editing time, when the composition was last logically changed by the author.-->
    <date value="2017-05-11T14:38:00+00:00"/>
    <!--Identifies who is responsible for the information in the composition, not necessarily who typed it in-->
    <author>
     <reference value="urn:uuid:619ac49c-9409-4979-8594-c47d33ef6bfc"/>
    </author>
    <title value="Outpatient letter"/>
    <!--Identifies the organization responsible for ongoing maintenance of and access to the composition/document information.-->
    <custodian>
     <reference value="urn:uuid:3faff938-09cb-4409-bd20-0c47d2fbdf6e"/>
    </custodian>
    <!--Sections are included here-->
    <!--Allergies-->
    <section>
     <title value="Allergies and adverse reactions"/>
     <!--SNOMED CT classification of section-->
     <code>
      <coding>
       <system value="http://snomed.info/sct"/>
       <code value="886921000000105"/>
       <display value="Allergies and adverse reactions"/>
      </coding>
     </code>
     <text>
      <status value="generated"/>
      <div xmlns="http://www.w3.org/1999/xhtml">
       <table width="100%">
        <tbody>
         <tr>
          <th>Causative agent</th>
          <td>Ms. Walker has no known allergies or adverse reactions.</td>
         </tr>
        </tbody>
       </table>
      </div>
     </text>
     <!--Reference to Allergies List as the source of information for this section-->
     <entry>
      <reference value="urn:uuid:5824d803-9adb-4fa8-9cba-11a0ea9105d0"/>
     </entry>
    </section>
    <section>
     <title value="Attendance details"/>
     <code>
      <coding>
       <system value="http://snomed.info/sct"/>
       <code value="1077881000000105"/>
       <display value="Attendance details"/>
      </coding>
     </code>
     <text>
      <status value="additional"/>
      <div xmlns="http://www.w3.org/1999/xhtml">
       <table width="100%">
        <tbody>
         <tr>
          <td colspan="2" style="width:100%">Dear Dr. O'Reilly<br/>I had the pleasure of meeting Ms. Walker at the palliative care outpatient clinic today, referred by Susan Snodgrass from the community Macmillan team, Endowdown Centre, BM5 0TP on the 23 April 2017.<br/>
          </td>
         </tr>
         <tr>
          <th>Date and time of contact</th>
          <td>01-May-2017</td>
         </tr>
         <tr>
          <th>Contact type</th>
          <td>First appointment</td>
         </tr>
         <tr>
          <th>Consultation method</th>
          <td>Face-to-face</td>
         </tr>
         <tr>
          <th>Responsible Healthcare professional</th>
          <td>Dr. Doris Mackay</td>
         </tr>
         <tr>
          <th>Specialty</th>
          <td>Palliative medicine</td>
         </tr>
         <tr>
          <th>Service</th>
          <td>Palliative medicine service</td>
         </tr>
         <tr>
          <th>Seen by</th>
          <td>Name: Dr. Doris Mackay<p>Role: Consultant in Palliative Medicine</p>
           <p>Tel: (01234) 562987</p>
          </td>
         </tr>
         <tr>
          <th>Person accompanying patient</th>
          <td>Ms. Karen Walker (daughter) <p>Mrs. N Bryant (IBD specialist nurse)</p>
          </td>
         </tr>
         <tr>
          <th>Outcome of outpatient attendance</th>
          <td>Appointment made for 01/06/2017</td>
         </tr>
        </tbody>
       </table>
      </div>
     </text>
    </section>
    <!-- Clinical summary mandatory section - no information given-->
    <section>
     <title value="Diagnoses"/>
     <code>
      <coding>
       <system value="http://snomed.info/sct"/>
       <code value="887161000000102"/>
       <display value="Diagnoses"/>
      </coding>
     </code>
     <text>
      <status value="generated"/>
      <div xmlns="http://www.w3.org/1999/xhtml">
       <table width="100%">
        <tbody>
         <tr>
          <th>Diagnosis name</th>
          <td>Metastatic renal cell carcinoma</td>
         </tr>
        </tbody>
       </table>
       <table width="100%">
        <tbody>
         <tr>
          <th>Diagnosis name</th>
          <td>Secondary liver cell carcinoma</td>
         </tr>
        </tbody>
       </table>
       <table width="100%">
        <tbody>
         <tr>
          <th>Diagnosis name</th>
          <td>Necrotic subcutaneous soft tissue nodule (anterior to liver)</td>
         </tr>
        </tbody>
       </table>
       <table width="100%">
        <tbody>
         <tr>
          <th>Diagnosis name</th>
          <td>Type II diabetes</td>
         </tr>
        </tbody>
       </table>
       <table width="100%">
        <tbody>
         <tr>
          <th>Diagnosis name</th>
          <td>Osteoporosis</td>
         </tr>
        </tbody>
       </table>
       <table width="100%">
        <tbody>
         <tr>
          <th>Diagnosis name</th>
          <td>Hiatus hernia</td>
         </tr>
        </tbody>
       </table>
       <table width="100%">
        <tbody>
         <tr>
          <th>Diagnosis name</th>
          <td>Vertigo</td>
         </tr>
        </tbody>
       </table>
      </div>
     </text>
     <!--Reference to the Condition resources which carry supporting information for this section.-->
     <entry>
      <reference value="urn:uuid:25682e5b-1453-42ae-b830-091f75dedbd3"/>
     </entry>
     <entry>
      <reference value="urn:uuid:c96be778-49bc-4dfb-be11-66be679b7995"/>
     </entry>
     <entry>
      <reference value="urn:uuid:cda3f927-135f-4295-a8ba-174b11330204"/>
     </entry>
     <entry>
      <reference value="urn:uuid:c3239ef6-1ed4-4ca4-9db9-d4589c1cdcad"/>
     </entry>
     <entry>
      <reference value="urn:uuid:26aacb3d-e1aa-4f29-8103-69ca35c81b88"/>
     </entry>
     <entry>
      <reference value="urn:uuid:a5b3ac0b-11e3-4906-bf31-9797731acacb"/>
     </entry>
     <entry>
      <reference value="urn:uuid:d97c0b6c-fa12-47b5-87e6-1ec7964fc4ba"/>
     </entry>
    </section>
    <!--Distribution list-->
    <section>
     <title value="Distribution list"/>
     <code>
      <coding>
       <system value="http://snomed.info/sct"/>
       <code value="887261000000109"/>
       <display value="Distribution list"/>
      </coding>
     </code>
     <text>
      <status value="generated"/>
      <div xmlns="http://www.w3.org/1999/xhtml">
       <table width="100%">
        <tbody>
         <tr>
          <th>Name</th>
          <td>Doug Sway</td>
         </tr>
         <tr>
          <th>Role</th>
          <td>Feeding Nurse</td>
         </tr>
         <tr>
          <th>Organisation</th>
          <td>Company X</td>
         </tr>
         <tr>
          <th>Relationship to subject</th>
          <td>Patient's feeding nurse</td>
         </tr>
        </tbody>
       </table>
       <table width="100%">
        <tbody>
         <tr>
          <th>Name</th>
          <td>Dr C O'Reilly</td>
         </tr>
         <tr>
          <th>Role</th>
          <td>GP</td>
         </tr>
         <tr>
          <th>Organisation</th>
          <td>Canvas Health Centre - Organisation ID: A111111</td>
         </tr>
         <tr>
          <th>Relationship to subject</th>
          <td>GP</td>
         </tr>
        </tbody>
       </table>
       <table width="100%">
        <tbody>
         <tr>
          <th>Name</th>
          <td>Susan Snodgrass</td>
         </tr>
         <tr>
          <th>Role</th>
          <td>Community Macmillan nurse</td>
         </tr>
         <tr>
          <th>Organisation</th>
          <td>Community Macmillan Team</td>
         </tr>
         <tr>
          <th>Relationship to subject</th>
          <td>Patient's Community Macmillan nurse</td>
         </tr>
        </tbody>
       </table>
       <table width="100%">
        <tbody>
         <tr>
          <th>Name</th>
          <td>Mr. Bromage</td>
         </tr>
         <tr>
          <th>Role</th>
          <td>Urologist</td>
         </tr>
         <tr>
          <th>Organisation</th>
          <td>St. Crispin's Hospital - Organisation ID: RX0000</td>
         </tr>
         <tr>
          <th>Relationship to subject</th>
          <td>Patient's Urologist</td>
         </tr>
        </tbody>
       </table>
       <table width="100%">
        <tbody>
         <tr>
          <th>Name</th>
          <td>Professor Hawkins</td>
         </tr>
         <tr>
          <th>Role</th>
          <td>Medical Oncologist</td>
         </tr>
         <tr>
          <th>Organisation</th>
          <td>St. Crispin's Hospital - Organisation ID: RX0000</td>
         </tr>
         <tr>
          <th>Relationship to subject</th>
          <td>Patient's Consultant</td>
         </tr>
        </tbody>
       </table>
       <table width="100%">
        <tbody>
         <tr>
          <th>Name</th>
          <td>Ms. Walker </td>
         </tr>
         <tr>
          <th>Role</th>
          <td>Patient</td>
         </tr>
        </tbody>
       </table>
      </div>
     </text>
     <!--Reference to the practitioner entries as recipients of information-->
     <entry>
      <reference value="urn:uuid:251b960d-3a48-405b-9061-44d51fbf352b"/>
     </entry>
     <entry>
      <reference value="urn:uuid:296a7f30-033f-4f31-b846-0c2e85836428"/>
     </entry>
     <entry>
      <reference value="urn:uuid:d3767dcf-8211-41ce-a07f-906c0399c757"/>
     </entry>
     <entry>
      <reference value="urn:uuid:92181479-95c0-49b8-9cf3-7ffb42823915"/>
     </entry>
     <!--Reference to the patient entry as recipient of information-->
     <entry>
      <reference value="urn:uuid:159c7259-4253-4e21-90c7-87497a2ba863"/>
     </entry>
    </section>
    <!-- GP Practice-->
    <section>
     <title value="GP practice"/>
     <code>
      <coding>
       <system value="http://snomed.info/sct"/>
       <code value="886711000000101"/>
       <display value="GP practice details"/>
      </coding>
     </code>
     <text>
      <status value="additional"/>
      <div xmlns="http://www.w3.org/1999/xhtml">
       <table width="100%">
        <tbody>
         <tr>
          <th>GP practice identifier</th>
          <td>A111111</td>
         </tr>
         <tr>
          <th>GP name</th>
          <td>Dr C O'Reilly</td>
         </tr>
         <tr>
          <th>GP practice details</th>
          <td>Canvas Health Centre, 27, Acacia Road, BM9 6PM</td>
         </tr>
        </tbody>
       </table>
      </div>
     </text>
     <!--Reference to the Organisation entry as the source of information for this section-->
     <entry>
      <reference value="urn:uuid:2f63f514-d18c-4f45-8c3e-696621271def"/>
     </entry>
    </section>
    <!--History section-->
    <section>
     <title value="History"/>
     <code>
      <coding>
       <system value="http://snomed.info/sct"/>
       <code value="717121000000105"/>
       <display value="History"/>
      </coding>
     </code>
     <text>
      <status value="generated"/>
      <div xmlns="http://www.w3.org/1999/xhtml">
       <table width="100%">
        <tbody>
         <tr>
          <th>Patient's reason for referral</th>
          <td>Ms. Walker was referred for review of symptom control.</td>
         </tr>
         <tr>
          <th>Presenting complaints or issue</th>
          <td>Pain: Ms. Walker struggles with pain predominantly around the right upper quadrant of her abdomen and this goes all the way round to the back, at worst described as 10/10.  She has been reluctant to take full dose of Co codamol - she intermittently takes one tablet at a time (30/500mg). According to Karen, Ms. Walker clearly has a high pain tolerance level and tends to underplay her symptoms.</td>
         </tr>
         <tr>
          <th>Presenting complaints or issue</th>
          <td>Fatigue: Ms. Walker finds herself tiring out by the second half of the day, particularly if she has done a bit more than usual earlier on.</td>
         </tr>
         <tr>
          <th>Presenting complaints or issue</th>
          <td>Psychologically: According to Karen, she and Ms. Walker have been intermittently tearful and upset given news of disease recurrence and are doing their best to deal with it. Ms. Walker wasn't expecting to hear about cancer recurrence in such a short period after her surgery.</td>
         </tr>
         <tr>
          <th>History since last contact</th>
          <td>She has been on pazopanib since May 2017.She had a right nephrectomy for clear cell renal carcinoma in Sept 2016, and now has metastatic disease.</td>
         </tr>
        </tbody>
       </table>
      </div>
     </text>
     <!--Reference to the resources where information for this section can be found-->
     <!--Metastatic renal cell carcinoma-->
     <entry>
      <reference value="urn:uuid:25682e5b-1453-42ae-b830-091f75dedbd3"/>
     </entry>
     <!--Secondary liver cell carcinoma-->
     <entry>
      <reference value="urn:uuid:c96be778-49bc-4dfb-be11-66be679b7995"/>
     </entry>
    </section>
    <!--Individual requirements - information not given-->
    <section>
     <title value="Information and advice given"/>
     <code>
      <coding>
       <system value="http://snomed.info/sct"/>
       <code value="1052951000000105"/>
       <display value="Information and advice given"/>
      </coding>
     </code>
     <text>
      <status value="additional"/>
      <div xmlns="http://www.w3.org/1999/xhtml">
       <table width="100%">
        <tbody>
         <tr>
          <th>Information and advice given</th>
         </tr>
         <tr>
          <td>We discussed the benefit of being able to do more through the day and having better psychological well-being when pain is better controlled. I have explained how we would use long acting Morphine preparation along with Oramorph to get control of background as well as breakthrough cancer pain. Given the degree of tenderness around the subcutaneous nodule on the right upper quadrant, we have discussed that radiotherapy may be helpful with the pain.</td>
         </tr>
         <tr>
          <td>We discussed that Ms. Walker's fatigue is part of the cancer presentation, and we discussed being pragmatic - doing activities with gaps in between to allow herself to conserve energy whilst pacing herself through the day.  I have encouraged her to cut back on tasks that are not as important as others such as her household chores and to delegate them to others, such as family where possible.  We acknowledged that this is a significant change in her lifestyle given that she was independently managing everything for a long time.</td>
         </tr>
         <tr>
          <td>I explained that while the speed at which disease recurrence has happened doesn't bode well, we will need to see how Ms. Walker is likely to respond to potential treatment options.  We are likely to know more about prognosis following her appointment with the Oncologist in the next couple of weeks - we don't know how she will respond to treatment in itself. It may be that the treatment might be effective but that she might not be strong enough to cope with it on a long term basis; however we are hopeful that there will be some positive outcome with the treatment.  I have encouraged her to proceed with planning ahead and deciding about what she would prefer to happen irrespective of her prognosis.</td>
         </tr>
         <tr>
          <td>I have agreed that Ms. Walker's wish not to be resuscitated in the event of a cardio respiratory arrest was sensible and advised her either yourself or I could complete a community DNACPR form in the near future. Her son and daughter are aware that she could have an appointed LPA on matters of her health and well-being. She is considering funeral arrangement plans.</td>
         </tr>
         <tr>
          <td>I have advised that Ms. Walker can get in touch with me if there are any concerns.</td>
         </tr>
        </tbody>
       </table>
      </div>
     </text>
    </section>
    <!--Legal information section-->
    <section>
     <title value="Legal information"/>
     <code>
      <coding>
       <system value="http://snomed.info/sct"/>
       <code value="886961000000102"/>
       <display value="Legal information"/>
      </coding>
     </code>
     <text>
      <status value="additional"/>
      <div xmlns="http://www.w3.org/1999/xhtml">
       <table width="100%">
        <tbody>
         <tr>
          <th>Lasting power of attorney  for personal welfare or court-appointed deputy (or equivalent)</th>
          <td>Ms. Walker's son, Timothy and daughter, Karen have an LPA for handling her financial matters.</td>
         </tr>
        </tbody>
       </table>
      </div>
     </text>
    </section>
    <!--Medications and medical devices section-->
    <section>
     <title value="Medications and medical devices"/>
     <code>
      <coding>
       <system value="http://snomed.info/sct"/>
       <code value="933361000000108"/>
       <display value="Medications and medical devices"/>
      </coding>
     </code>
     <text>
      <status value="generated"/>
      <div xmlns="http://www.w3.org/1999/xhtml">
       <table width="100%">
        <tbody>
         <tr>
          <td colspan="2">I have given Ms. Walker the following prescriptions for new medications<br/>
(only changes to medications and medical devices as a result of the outpatient encounter are included):<br/>
New medication:<br/>
          </td>
         </tr>
        </tbody>
       </table>
       <table width="100%">
        <tbody>
         <tr>
          <th>Medication item</th>
          <td>Medication name: MST</td>
          <td>Form: Tablets</td>
          <td>Route: Oral</td>
          <td>Dose directions description: A 14-day prescription for MST in tablet form at a dose of 15mg to be taken orally twice a day for pain relief. Please renew the prescription in two weeks time.</td>
         </tr>
         <tr>
          <th>Medication change</th>
          <td colspan="4">Status: Added</td>
         </tr>
        </tbody>
       </table>
       <table width="100%">
        <tbody>
         <tr>
          <th>Medication item</th>
          <td>Medication name: Oramorph</td>
          <td>Form: Tablets</td>
          <td>Route: Oral</td>
          <td>Dose directions description: A prescription for Oramorph in tablet form at a dose of 2.5-5mg to be taken orally as necessary for pain relief, but not more frequently than once every two hours. Please renew the prescription if necessary.</td>
         </tr>
         <tr>
          <th>Medication change</th>
          <td colspan="4">Status: Added</td>
         </tr>
        </tbody>
       </table>
       <table width="100%">
        <tbody>
         <tr>
          <th>Medication item</th>
          <td>Medication name: Metoclopramide</td>
          <td>Form: Tablets</td>
          <td>Route: Oral</td>
          <td>Dose directions description: A 14-day prescription for Metoclopramide in tablet form at a dose of 10mg to be taken orally as necessary, but not more frequently than three times a day for nausea. Please renew prescription if necessary.</td>
         </tr>
         <tr>
          <th>Medication change</th>
          <td colspan="4">Status: Added</td>
         </tr>
        </tbody>
       </table>
       <table width="100%">
        <tbody>
         <tr>
          <th>Medication item</th>
          <td>Medication name: Dexamethasone</td>
          <td>Form: Tablets</td>
          <td>Route: Oral</td>
          <td>Dose directions description: A 5-day prescription for Dexamethasone in tablet form at a dose of 4mg to be taken once in the morning for 5 days.</td>
         </tr>
         <tr>
          <th>Medication change</th>
          <td colspan="1">Status: Added</td>
          <td colspan="3">Indication: The hope is that Dexamethasone will increase her energy levels and appetite.</td>
         </tr>
        </tbody>
       </table>
      </div>
     </text>
     <!--Medications to be coded fully as part of next delivery phase.-->
     <entry>
      <reference value="urn:uuid:f1a5b4ca-dd46-4242-84de-c57e29332e0b"/>
     </entry>
    </section>
    <section>
     <title value="Patient and carer concerns, expectations and wishes"/>
     <!--SNOMED CT classification of section-->
     <code>
      <coding>
       <system value="http://snomed.info/sct"/>
       <code value="1052941000000107"/>
       <display value="Patient and carer concerns, expectations and wishes"/>
      </coding>
     </code>
     <text>
      <status value="additional"/>
      <div xmlns="http://www.w3.org/1999/xhtml">
       <table width="100%">
        <tbody>
         <tr>
          <th>Patient and carer concerns, expectations and wishes</th>
          <td>Ms. Walker is very clear that she wishes to have more as much detail as possible and asked about her prognosis. She does not wish to be resuscitated in the event of a cardio respiratory arrest.</td>
         </tr>
        </tbody>
       </table>
      </div>
     </text>
    </section>
    <!-- Patient demographics-->
    <section>
     <title value="Patient demographics"/>
     <code>
      <coding>
       <system value="http://snomed.info/sct"/>
       <code value="886731000000109"/>
       <display value="Patient demographics"/>
      </coding>
     </code>
     <text>
      <status value="generated"/>
      <div xmlns="http://www.w3.org/1999/xhtml">
       <table width="100%">
        <tbody>
         <tr>
          <th>Patient name</th>
          <td>Ms. Margaret Walker</td>
         </tr>
         <tr>
          <th>Patient preferred name</th>
          <td>Margaret Walker</td>
         </tr>
         <tr>
          <th>Date of birth</th>
          <td>1 February 1964</td>
         </tr>
         <tr>
          <th>Gender</th>
          <td>2 Female</td>
         </tr>
         <tr>
          <th>NHS number</th>
          <td>124 351 1100</td>
         </tr>
         <tr>
          <th>Other identifier</th>
          <td>TL89711</td>
         </tr>
         <tr>
          <th>Patient address</th>
          <td>30, Acacia Road, BM9 6PL</td>
         </tr>
         <tr>
          <th>Patient email address</th>
          <td>margaret@walker.net</td>
         </tr>
         <tr>
          <th>Patient telephone number</th>
          <td>077 1234 1111</td>
         </tr>
        </tbody>
       </table>
      </div>
     </text>
     <!--reference to further information carried in the patient resource-->
     <entry>
      <reference value="urn:uuid:159c7259-4253-4e21-90c7-87497a2ba863"/>
     </entry>
    </section>
    <!-- Person completing record section-->
    <section>
     <title value="Person completing record"/>
     <code>
      <coding>
       <system value="http://snomed.info/sct"/>
       <code value="887231000000104"/>
       <display value="Person completing record"/>
      </coding>
     </code>
     <text>
      <status value="generated"/>
      <div xmlns="http://www.w3.org/1999/xhtml">
       <table width="100%">
        <tbody>
         <tr>
          <th>Name</th>
          <td>Dr. Doris Mackay</td>
         </tr>
         <tr>
          <th>Role</th>
          <td>Consultant in Palliative Medicine</td>
         </tr>
         <tr>
          <th>Grade</th>
          <td>Not given</td>
         </tr>
         <tr>
          <th>Specialty</th>
          <td>Palliative Medicine</td>
         </tr>
         <tr>
          <th>Date and time completed</th>
          <td>01/05/17: 16:42</td>
         </tr>
         <tr>
          <th>Contact details</th>
          <td>Email: pm@stcrispins.nhs.uk</td>
         </tr>
        </tbody>
       </table>
      </div>
     </text>
     <!--reference to further information carried in the practitioner resource-->
     <entry>
      <reference value="urn:uuid:619ac49c-9409-4979-8594-c47d33ef6bfc"/>
     </entry>
    </section>
    <!--Plan and requested actions section-->
    <section>
     <title value="Plan and requested actions"/>
     <code>
      <coding>
       <system value="http://snomed.info/sct"/>
       <code value="887201000000105"/>
       <display value="Plan and requested actions"/>
      </coding>
     </code>
     <text>
      <status value="additional"/>
      <div xmlns="http://www.w3.org/1999/xhtml">
       <table width="100%">
        <tbody>
         <tr>
          <th>Actions for healthcare professionals</th>
         </tr>
         <tr>
          <td>Ms. Walker is to be supported to complete a community DNACPR form when she is ready (Doris MacKay or Dr. C. O'Reilly depending on timing).</td>
         </tr>
         <tr>
          <td>Ms. Walker is to see Professor Hawkins for consideration of immunotherapy as it is hopeful that she will have some benefit from this treatment. Currently her performance status is around 1-2.</td>
         </tr>
         <tr>
          <td>Professor Hawkins is requested to consider radiotherapy to help with pain as a result of degree of tenderness around the subcutaneous nodule on the right upper quadrant</td>
         </tr>
         <tr>
          <td>Kindly arrange for a blood glucose check next week as Dexamethasone might increase her BM levels. (She is aware that this is likely to be temporary and will get better with stopping Dexamethasone).</td>
         </tr>
         <tr>
          <td/>
         </tr>
        </tbody>
       </table>
      </div>
     </text>
    </section>
    <!--Problems and issues-->
    <section>
     <title value="Problems and issues"/>
     <code>
      <coding>
       <system value="http://snomed.info/sct"/>
       <code value="887151000000100"/>
       <display value="Problems and issues"/>
      </coding>
     </code>
     <text>
      <status value="additional"/>
      <div xmlns="http://www.w3.org/1999/xhtml">
       <table width="100%">
        <tbody>
         <tr>
          <th>Problems and issues</th>
          <td>Pain</td>
         </tr>
        </tbody>
       </table>
       <table width="100%">
        <tbody>
         <tr>
          <th>Problems and issues</th>
          <td>Nausea</td>
         </tr>
        </tbody>
       </table>
       <table width="100%">
        <tbody>
         <tr>
          <th>Problems and issues</th>
          <td>Fatigue</td>
         </tr>
        </tbody>
       </table>
       <table width="100%">
        <tbody>
         <tr>
          <th>Problems and issues</th>
          <td>Psychologically: tearful and upset</td>
         </tr>
        </tbody>
       </table>
      </div>
     </text>
    </section>
    <section>
     <title value="Referrer details"/>
     <code>
      <coding>
       <system value="http://snomed.info/sct"/>
       <code value="1052891000000108"/>
       <display value="Referrer details"/>
      </coding>
     </code>
     <text>
      <status value="additional"/>
      <div xmlns="http://www.w3.org/1999/xhtml">
       <table width="100%">
        <tbody>
         <tr>
          <th>Referrer details</th>
          <td>
           <p>Name: Susan Snodgrass</p>
           <p>Role: Other Community Team Manager</p>
           <p>Organisation: Community Macmillan team, Endowdown Centre, BM5 0TP </p>
          </td>
         </tr>
        </tbody>
       </table>
      </div>
     </text>
    </section>
    <!--Safety alerts not given-->
   </Composition>
  </resource>
 </entry>
 <!--Encounter Example 1-->
 <entry>
  <fullUrl value="urn:uuid:a5c73078-72e8-4c2b-a4f6-a3fdcc53b39e"/>
  <resource>
   <Encounter>
    <id value="a5c73078-72e8-4c2b-a4f6-a3fdcc53b39e"/>
    <meta>
     <profile value="https://fhir.hl7.org.uk/STU3/StructureDefinition/CareConnect-Encounter-1"/>
    </meta>
    <extension url="https://fhir.hl7.org.uk/STU3/StructureDefinition/Extension-CareConnect-OutcomeOfAttendance-1">
     <valueCodeableConcept>
      <coding>
       <system value="https://fhir.hl7.org.uk/STU3/CodeSystem/CareConnect-OutcomeOfAttendance-1"/>
       <code value="3"/>
       <display value="Appointment to be made at a later date"/>
      </coding>
     </valueCodeableConcept>
    </extension>
    <identifier>
     <system value="https://tools.ietf.org/html/rfc4122"/>
     <value value="3da3e1b0-76a6-411f-9b56-d19b73f8d901"/>
    </identifier>
    <status value="finished"/>
    <class>
     <system value="http://hl7.org/fhir/v3-ActEncounterCode"/>
     <code value="AMB"/>
     <display value="ambulatory"/>
     <!--The term ambulatory usually implies that the patient has come to the location and is not assigned to a bed. Sometimes referred to as an outpatient encounter.-->
    </class>
    <!--Specific type of encounter-->
    <type>
     <coding>
      <system value="http://snomed.info/sct"/>
      <code value="163381000000105"/>
      <display value="Outpatient Clinic Attendance"/>
     </coding>
    </type>
    <!--Reference to the patient as the subject of the Encounter-->
    <subject>
     <reference value="urn:uuid:159c7259-4253-4e21-90c7-87497a2ba863"/>
    </subject>
    <!--Reference to the participants present during the encounter-->
    <participant>
     <type>
      <coding>
       <system value="http://hl7.org/fhir/v3/ParticipationType"/>
       <code value="PPRF"/>
       <display value="primary performer"/>
      </coding>
     </type>
     <individual>
      <reference value="urn:uuid:619ac49c-9409-4979-8594-c47d33ef6bfc"/>
     </individual>
    </participant>
    <period>
     <start value="2017-05-01T15:40:00+00:00"/>
     <end value="2017-05-01T16:42:00+00:00"/>
    </period>
    <!--	The list of diagnoses relevant to this encounter-->
    <diagnosis>
     <!--Reason the encounter takes place (resource)-->
     <condition>
      <reference value="urn:uuid:25682e5b-1453-42ae-b830-091f75dedbd3"/>
     </condition>
    </diagnosis>
    <hospitalization>
     <!--	Category or kind of location after discharge-->
     <dischargeDisposition>
      <coding>
       <system value="https://fhir.hl7.org.uk/STU3/CodeSystem/CareConnect-DischargeDestination-1"/>
       <code value="19"/>
       <display value="Usual place of residence unless listed below, for example, a private dwelling whether owner occupied or owned by Local Authority, housing association or other landlord. This includes wardened accommodation but not residential accommodation where health care is provided. It also includes Patients with no fixed abode."/>
      </coding>
     </dischargeDisposition>
    </hospitalization>
   </Encounter>
  </resource>
 </entry>
 <!--Practitioner-Example-->
 <entry>
  <fullUrl value="urn:uuid:619ac49c-9409-4979-8594-c47d33ef6bfc"/>
  <resource>
   <Practitioner>
    <id value="619ac49c-9409-4979-8594-c47d33ef6bfc"/>
    <meta>
     <profile value="https://fhir.hl7.org.uk/STU3/StructureDefinition/CareConnect-Practitioner-1"/>
    </meta>
    <name>
     <family value="MacKay"/>
     <given value="Doris"/>
     <prefix value="Dr"/>
    </name>
    <telecom>
     <system value="phone"/>
     <value value="01234 567890"/>
     <use value="work"/>
    </telecom>
    <telecom>
     <system value="email"/>
     <value value="pm@stcrispins.nhs.uk"/>
     <use value="work"/>
    </telecom>
    <address>
     <line value="Department of Palliative Medicine"/>
     <line value="St Crispin's Hospital"/>
     <city value="Donaldstown"/>
     <postalCode value="DO5 7TP"/>
    </address>
   </Practitioner>
  </resource>
 </entry>
 <!--Diagnoses 1-->
 <entry>
  <fullUrl value="urn:uuid:25682e5b-1453-42ae-b830-091f75dedbd3"/>
  <resource>
   <Condition>
    <id value="25682e5b-1453-42ae-b830-091f75dedbd3"/>
    <meta>
     <profile value="https://fhir.nhs.uk/STU3/StructureDefinition/CareConnect-ITK-Condition-1"/>
    </meta>
    <identifier>
     <system value="https://tools.ietf.org/html/rfc4122"/>
     <value value="bc8e4fc0-18dc-46b5-9f60-30857b24e42b"/>
    </identifier>
    <clinicalStatus value="active"/>
    <verificationStatus value="confirmed"/>
    <category>
     <coding>
      <system value="https://fhir.hl7.org.uk/STU3/CodeSystem/CareConnect-ConditionCategory-1"/>
      <code value="diagnosis"/>
      <display value="Diagnosis"/>
     </coding>
    </category>
    <code>
     <coding>
      <system value="http://snomed.info/sct"/>
      <code value="702392008"/>
      <display value="Metastatic renal cell carcinoma"/>
     </coding>
     <text value="Metastatic renal cell carcinoma"/>
    </code>
    <subject>
     <reference value="urn:uuid:159c7259-4253-4e21-90c7-87497a2ba863"/>
    </subject>
    <!--Reference to the encounter-->
    <context>
     <reference value="urn:uuid:a5c73078-72e8-4c2b-a4f6-a3fdcc53b39e"/>
    </context>
    <assertedDate value="2017-05-11"/>
    <asserter>
     <reference value="urn:uuid:619ac49c-9409-4979-8594-c47d33ef6bfc"/>
    </asserter>
   </Condition>
  </resource>
 </entry>
 <!--Diagnoses 2-->
 <entry>
  <fullUrl value="urn:uuid:c96be778-49bc-4dfb-be11-66be679b7995"/>
  <resource>
   <Condition>
    <id value="c96be778-49bc-4dfb-be11-66be679b7995"/>
    <meta>
     <profile value="https://fhir.nhs.uk/STU3/StructureDefinition/CareConnect-ITK-Condition-1"/>
    </meta>
    <identifier>
     <system value="https://tools.ietf.org/html/rfc4122"/>
     <value value="9b5bfd05-4359-4639-93eb-28f13542013f"/>
    </identifier>
    <clinicalStatus value="active"/>
    <verificationStatus value="confirmed"/>
    <category>
     <coding>
      <system value="https://fhir.hl7.org.uk/STU3/CodeSystem/CareConnect-ConditionCategory-1"/>
      <code value="diagnosis"/>
      <display value="Diagnosis"/>
     </coding>
    </category>
    <code>
     <coding>
      <system value="http://snomed.info/sct"/>
      <code value="109841003"/>
      <display value="Liver cell carcinoma"/>
     </coding>
     <text value="Secondary liver cell carcinoma"/>
    </code>
    <subject>
     <reference value="urn:uuid:159c7259-4253-4e21-90c7-87497a2ba863"/>
    </subject>
    <!--Reference to the encounter-->
    <context>
     <reference value="urn:uuid:a5c73078-72e8-4c2b-a4f6-a3fdcc53b39e"/>
    </context>
    <assertedDate value="2017-05-11"/>
    <asserter>
     <reference value="urn:uuid:619ac49c-9409-4979-8594-c47d33ef6bfc"/>
    </asserter>
   </Condition>
  </resource>
 </entry>
 <!--Diagnoses 3-->
 <entry>
  <fullUrl value="urn:uuid:cda3f927-135f-4295-a8ba-174b11330204"/>
  <resource>
   <Condition>
    <id value="cda3f927-135f-4295-a8ba-174b11330204"/>
    <meta>
     <profile value="https://fhir.nhs.uk/STU3/StructureDefinition/CareConnect-ITK-Condition-1"/>
    </meta>
    <identifier>
     <system value="https://tools.ietf.org/html/rfc4122"/>
     <value value="65f0aa98-0e45-43fd-ab67-7b570a3fabcf"/>
    </identifier>
    <clinicalStatus value="active"/>
    <verificationStatus value="confirmed"/>
    <category>
     <coding>
      <system value="https://fhir.hl7.org.uk/STU3/CodeSystem/CareConnect-ConditionCategory-1"/>
      <code value="diagnosis"/>
      <display value="Diagnosis"/>
     </coding>
    </category>
    <code>
     <coding>
      <system value="http://snomed.info/sct"/>
      <code value="445125009"/>
      <display value="Necrosis of subcutaneous tissue"/>
     </coding>
     <text value="Necrotic subcutaneous soft tissue nodule (anterior to liver)"/>
    </code>
    <subject>
     <reference value="urn:uuid:159c7259-4253-4e21-90c7-87497a2ba863"/>
    </subject>
    <!--Reference to the encounter-->
    <context>
     <reference value="urn:uuid:a5c73078-72e8-4c2b-a4f6-a3fdcc53b39e"/>
    </context>
    <assertedDate value="2017-05-11"/>
    <asserter>
     <reference value="urn:uuid:619ac49c-9409-4979-8594-c47d33ef6bfc"/>
    </asserter>
   </Condition>
  </resource>
 </entry>
 <!--Diagnoses 4-->
 <entry>
  <fullUrl value="urn:uuid:c3239ef6-1ed4-4ca4-9db9-d4589c1cdcad"/>
  <resource>
   <Condition>
    <id value="c3239ef6-1ed4-4ca4-9db9-d4589c1cdcad"/>
    <meta>
     <profile value="https://fhir.nhs.uk/STU3/StructureDefinition/CareConnect-ITK-Condition-1"/>
    </meta>
    <identifier>
     <system value="https://tools.ietf.org/html/rfc4122"/>
     <value value="73db6031-978f-4bad-a3a2-ca9fc5bc5aa1"/>
    </identifier>
    <clinicalStatus value="active"/>
    <verificationStatus value="confirmed"/>
    <category>
     <coding>
      <system value="https://fhir.hl7.org.uk/STU3/CodeSystem/CareConnect-ConditionCategory-1"/>
      <code value="diagnosis"/>
      <display value="Diagnosis"/>
     </coding>
    </category>
    <code>
     <coding>
      <system value="http://snomed.info/sct"/>
      <code value="44054006"/>
      <display value="Type 2 diabetes mellitus"/>
     </coding>
    </code>
    <subject>
     <reference value="urn:uuid:159c7259-4253-4e21-90c7-87497a2ba863"/>
    </subject>
    <!--Reference to the encounter-->
    <context>
     <reference value="urn:uuid:a5c73078-72e8-4c2b-a4f6-a3fdcc53b39e"/>
    </context>
    <assertedDate value="2017-05-11"/>
    <asserter>
     <reference value="urn:uuid:619ac49c-9409-4979-8594-c47d33ef6bfc"/>
    </asserter>
   </Condition>
  </resource>
 </entry>
 <!--Diagnoses 5-->
 <entry>
  <fullUrl value="urn:uuid:26aacb3d-e1aa-4f29-8103-69ca35c81b88"/>
  <resource>
   <Condition>
    <id value="26aacb3d-e1aa-4f29-8103-69ca35c81b88"/>
    <meta>
     <profile value="https://fhir.nhs.uk/STU3/StructureDefinition/CareConnect-ITK-Condition-1"/>
    </meta>
    <identifier>
     <system value="https://tools.ietf.org/html/rfc4122"/>
     <value value="d1901194-bb4a-4991-a07d-b66220c7b0ce"/>
    </identifier>
    <clinicalStatus value="active"/>
    <verificationStatus value="confirmed"/>
    <category>
     <coding>
      <system value="https://fhir.hl7.org.uk/STU3/CodeSystem/CareConnect-ConditionCategory-1"/>
      <code value="diagnosis"/>
      <display value="Diagnosis"/>
     </coding>
    </category>
    <code>
     <coding>
      <system value="http://snomed.info/sct"/>
      <code value="64859006"/>
      <display value="Osteoporosis"/>
     </coding>
    </code>
    <subject>
     <reference value="urn:uuid:159c7259-4253-4e21-90c7-87497a2ba863"/>
    </subject>
    <!--Reference to the encounter-->
    <context>
     <reference value="urn:uuid:a5c73078-72e8-4c2b-a4f6-a3fdcc53b39e"/>
    </context>
    <assertedDate value="2017-05-11"/>
    <asserter>
     <reference value="urn:uuid:619ac49c-9409-4979-8594-c47d33ef6bfc"/>
    </asserter>
   </Condition>
  </resource>
 </entry>
 <!--Diagnoses 6-->
 <entry>
  <fullUrl value="urn:uuid:a5b3ac0b-11e3-4906-bf31-9797731acacb"/>
  <resource>
   <Condition>
    <id value="a5b3ac0b-11e3-4906-bf31-9797731acacb"/>
    <meta>
     <profile value="https://fhir.nhs.uk/STU3/StructureDefinition/CareConnect-ITK-Condition-1"/>
    </meta>
    <identifier>
     <system value="https://tools.ietf.org/html/rfc4122"/>
     <value value="cde9c268-4459-4fb9-a22c-652c2e92e259"/>
    </identifier>
    <clinicalStatus value="active"/>
    <verificationStatus value="confirmed"/>
    <category>
     <coding>
      <system value="https://fhir.hl7.org.uk/STU3/CodeSystem/CareConnect-ConditionCategory-1"/>
      <code value="diagnosis"/>
      <display value="Diagnosis"/>
     </coding>
    </category>
    <code>
     <coding>
      <system value="http://snomed.info/sct"/>
      <code value="84089009"/>
      <display value="Hiatal hernia"/>
     </coding>
     <text value="Hiatus hernia"/>
    </code>
    <subject>
     <reference value="urn:uuid:159c7259-4253-4e21-90c7-87497a2ba863"/>
    </subject>
    <!--Reference to the encounter-->
    <context>
     <reference value="urn:uuid:a5c73078-72e8-4c2b-a4f6-a3fdcc53b39e"/>
    </context>
    <assertedDate value="2017-05-11"/>
    <asserter>
     <reference value="urn:uuid:619ac49c-9409-4979-8594-c47d33ef6bfc"/>
    </asserter>
   </Condition>
  </resource>
 </entry>
 <!--Diagnoses 7-->
 <entry>
  <fullUrl value="urn:uuid:d97c0b6c-fa12-47b5-87e6-1ec7964fc4ba"/>
  <resource>
   <Condition>
    <id value="d97c0b6c-fa12-47b5-87e6-1ec7964fc4ba"/>
    <meta>
     <profile value="https://fhir.nhs.uk/STU3/StructureDefinition/CareConnect-ITK-Condition-1"/>
    </meta>
    <identifier>
     <system value="https://tools.ietf.org/html/rfc4122"/>
     <value value="cdb02716-c937-4f1f-8f93-99144e7db8dc"/>
    </identifier>
    <clinicalStatus value="active"/>
    <verificationStatus value="confirmed"/>
    <category>
     <coding>
      <system value="https://fhir.hl7.org.uk/STU3/CodeSystem/CareConnect-ConditionCategory-1"/>
      <code value="diagnosis"/>
      <display value="Diagnosis"/>
     </coding>
    </category>
    <code>
     <coding>
      <system value="http://snomed.info/sct"/>
      <code value="399153001"/>
      <display value="Vertigo"/>
     </coding>
     <text value="Vertigo"/>
    </code>
    <subject>
     <reference value="urn:uuid:159c7259-4253-4e21-90c7-87497a2ba863"/>
    </subject>
    <!--Reference to the encounter-->
    <context>
     <reference value="urn:uuid:a5c73078-72e8-4c2b-a4f6-a3fdcc53b39e"/>
    </context>
    <assertedDate value="2017-05-11"/>
    <asserter>
     <reference value="urn:uuid:619ac49c-9409-4979-8594-c47d33ef6bfc"/>
    </asserter>
   </Condition>
  </resource>
 </entry>
 <!-- Medication list-->
 <entry>
  <fullUrl value="urn:uuid:f1a5b4ca-dd46-4242-84de-c57e29332e0b"/>
  <resource>
   <List>
    <id value="f1a5b4ca-dd46-4242-84de-c57e29332e0b"/>
    <meta>
     <profile value="https://fhir.nhs.uk/STU3/StructureDefinition/ITK-Medication-List-1"/>
    </meta>
    <identifier>
     <system value="https://tools.ietf.org/html/rfc4122"/>
     <value value="6e502319-e803-4320-9863-90148690d506"/>
    </identifier>
    <status value="current"/>
    <mode value="snapshot"/>
    <code>
     <coding>
      <system value="http://hl7.org/fhir/list-example-use-codes"/>
      <code value="medications"/>
      <display value="Medication List"/>
     </coding>
    </code>
    <subject>
     <reference value="urn:uuid:159c7259-4253-4e21-90c7-87497a2ba863"/>
    </subject>
    <entry>
     <flag>
      <coding>
       <system value="https://fhir.nhs.uk/STU3/CodeSystem/ITK-PatientMedicationChangeType-1"/>
       <code value="04"/>
       <display value="Addition"/>
      </coding>
     </flag>
     <item>
      <reference value="urn:uuid:ce94f1f1-98fe-4b10-b4d0-2a23219be31f"/>
     </item>
    </entry>
   </List>
  </resource>
 </entry>
 <!--Medication statement-->
 <entry>
  <fullUrl value="urn:uuid:ce94f1f1-98fe-4b10-b4d0-2a23219be31f"/>
  <resource>
   <MedicationStatement>
    <id value="ce94f1f1-98fe-4b10-b4d0-2a23219be31f"/>
    <meta>
     <profile value="https://fhir.nhs.uk/STU3/StructureDefinition/CareConnect-ITK-MedicationStatement-1"/>
    </meta>
    <identifier>
     <system value="https://tools.ietf.org/html/rfc4122"/>
     <value value="4feab769-1b3e-437d-8a4a-e73baa273dbe"/>
    </identifier>
    <status value="intended"/>
    <medicationReference>
     <reference value="urn:uuid:b60f319f-d57a-499e-bea8-2fa8a7a3c991"/>
    </medicationReference>
    <!--Patient subject of the Medication statement-->
    <subject>
     <reference value="urn:uuid:159c7259-4253-4e21-90c7-87497a2ba863"/>
    </subject>
    <taken value="n"/>
    <dosage>
     <text value="Take 10mg orally as necessary for pain relief, but not more frequently than three times a day."/>
     <asNeededBoolean value="true"/>
     <route>
      <coding>
       <system value="http://snomed.info/sct"/>
       <code value="26643006"/>
       <display value="Oral"/>
      </coding>
     </route>
     <doseQuantity>
      <value value="10"/>
      <unit value="mg"/>
      <system value="http://unitsofmeasure.org"/>
      <code value="mg"/>
     </doseQuantity>
     <maxDosePerPeriod>
      <numerator>
       <value value="3"/>
       <unit value="Tablet"/>
       <system value="http://snomed.info/sct"/>
       <code value="385055001"/>
      </numerator>
      <denominator>
       <value value="1"/>
       <system value="http://unitsofmeasure.org"/>
       <code value="d"/>
      </denominator>
     </maxDosePerPeriod>
    </dosage>
   </MedicationStatement>
  </resource>
 </entry>
 <!--Medication Example 1-->
 <entry>
  <fullUrl value="urn:uuid:b60f319f-d57a-499e-bea8-2fa8a7a3c991"/>
  <resource>
   <Medication>
    <id value="b60f319f-d57a-499e-bea8-2fa8a7a3c991"/>
    <meta>
     <profile value="https://fhir.hl7.org.uk/STU3/StructureDefinition/CareConnect-Medication-1"/>
    </meta>
    <code>
     <coding>
      <system value="http://snomed.info/sct"/>
      <code value="322091008"/>
      <display value="Metoclopramide 10mg tablets"/>
     </coding>
    </code>
   </Medication>
  </resource>
 </entry>
 <!--Patient-Example-1-->
 <entry>
  <fullUrl value="urn:uuid:159c7259-4253-4e21-90c7-87497a2ba863"/>
  <resource>
   <Patient>
    <id value="159c7259-4253-4e21-90c7-87497a2ba863"/>
    <meta>
     <profile value="https://fhir.hl7.org.uk/STU3/StructureDefinition/CareConnect-Patient-1"/>
    </meta>
    <extension url="https://fhir.hl7.org.uk/STU3/StructureDefinition/Extension-CareConnect-EthnicCategory-1">
     <valueCodeableConcept>
      <coding>
       <system value="https://fhir.hl7.org.uk/STU3/CodeSystem/CareConnect-EthnicCategory-1"/>
       <code value="CA"/>
       <display value="English"/>
      </coding>
     </valueCodeableConcept>
    </extension>
    <extension url="https://fhir.hl7.org.uk/STU3/StructureDefinition/Extension-CareConnect-NHSCommunication-1">
     <extension url="language">
      <valueCodeableConcept>
       <coding>
        <system value="https://fhir.hl7.org.uk/STU3/CodeSystem/CareConnect-HumanLanguage-1"/>
        <code value="en"/>
        <display value="English"/>
       </coding>
      </valueCodeableConcept>
     </extension>
     <extension url="preferred">
      <valueBoolean value="true"/>
     </extension>
     <extension url="modeOfCommunication">
      <valueCodeableConcept>
       <coding>
        <system value="https://fhir.hl7.org.uk/STU3/CodeSystem/CareConnect-LanguageAbilityMode-1"/>
        <code value="ESP"/>
        <display value="Expressed spoken"/>
       </coding>
      </valueCodeableConcept>
     </extension>
     <extension url="modeOfCommunication">
      <valueCodeableConcept>
       <coding>
        <system value="https://fhir.hl7.org.uk/STU3/CodeSystem/CareConnect-LanguageAbilityMode-1"/>
        <code value="RWR"/>
        <display value="Received written"/>
       </coding>
      </valueCodeableConcept>
     </extension>
     <extension url="communicationProficiency">
      <valueCodeableConcept>
       <coding>
        <system value="https://fhir.hl7.org.uk/STU3/CodeSystem/CareConnect-LanguageAbilityProficiency-1"/>
        <code value="E"/>
        <display value="Excellent"/>
       </coding>
      </valueCodeableConcept>
     </extension>
     <extension url="interpreterRequired">
      <valueBoolean value="false"/>
     </extension>
    </extension>
    <identifier>
     <extension url="https://fhir.hl7.org.uk/STU3/StructureDefinition/Extension-CareConnect-NHSNumberVerificationStatus-1">
      <valueCodeableConcept>
       <coding>
        <system value="https://fhir.hl7.org.uk/STU3/CodeSystem/CareConnect-NHSNumberVerificationStatus-1"/>
        <code value="01"/>
        <display value="Number present and verified"/>
       </coding>
      </valueCodeableConcept>
     </extension>
     <system value="https://fhir.nhs.uk/Id/nhs-number"/>
     <value value="124 351 1100"/>
    </identifier>
    <identifier>
     <system value="https://fhir.nhs.uk/Id/local-patient-identifier"/>
     <value value="TL89711"/>
    </identifier>
    <active value="true"/>
    <name>
     <use value="official"/>
     <family value="Margaret"/>
     <given value="Walker"/>
     <prefix value="Mrs"/>
    </name>
    <name>
     <use value="usual"/>
     <family value="Margaret"/>
     <given value="Walker"/>
     <prefix value="Mrs"/>
    </name>
    <telecom>
     <system value="phone"/>
     <value value="077 1234 1111"/>
     <use value="mobile"/>
    </telecom>
    <telecom>
     <system value="email"/>
     <value value="margaret@walker.net"/>
     <use value="home"/>
    </telecom>
    <gender value="female"/>
    <birthDate value="1964-02-01"/>
    <address>
     <use value="home"/>
     <line value="30 Acacia Road"/>
     <postalCode value="BM9 6PL"/>
    </address>
   </Patient>
  </resource>
 </entry>
 <!--Practitioner-Example-2-->
 <entry>
  <fullUrl value="urn:uuid:251b960d-3a48-405b-9061-44d51fbf352b"/>
  <resource>
   <Practitioner>
    <id value="251b960d-3a48-405b-9061-44d51fbf352b"/>
    <meta>
     <profile value="https://fhir.hl7.org.uk/STU3/StructureDefinition/CareConnect-Practitioner-1"/>
    </meta>
    <name>
     <family value="O'Reilly"/>
     <given value="C"/>
     <prefix value="Dr"/>
    </name>
    <telecom>
     <system value="phone"/>
     <value value="01234 956412"/>
     <use value="work"/>
    </telecom>
   </Practitioner>
  </resource>
 </entry>
 <!--Practitioner role - General Medical Practitioner-->
 <entry>
  <fullUrl value="urn:uuid:81ebf8a3-f96a-426a-893b-0b81fcaec59d"/>
  <resource>
   <PractitionerRole>
    <id value="81ebf8a3-f96a-426a-893b-0b81fcaec59d"/>
    <meta>
     <profile value="https://fhir.hl7.org.uk/STU3/StructureDefinition/CareConnect-PractitionerRole-1"/>
    </meta>
    <practitioner>
     <reference value="urn:uuid:251b960d-3a48-405b-9061-44d51fbf352b"/>
    </practitioner>
    <organization>
     <reference value="urn:uuid:2f63f514-d18c-4f45-8c3e-696621271def"/>
    </organization>
    <code>
     <coding>
      <system value="https://fhir.hl7.org.uk/STU3/CodeSystem/CareConnect-SDSJobRoleName-1"/>
      <code value="R0260"/>
      <display value="General Medical Practitioner"/>
     </coding>
    </code>
   </PractitionerRole>
  </resource>
 </entry>
 <!--Practitioner roles -Consultant-->
 <entry>
  <fullUrl value="urn:uuid:7d071f2c-6c2e-4a1b-befe-55ff24745985"/>
  <resource>
   <PractitionerRole>
    <id value="7d071f2c-6c2e-4a1b-befe-55ff24745985"/>
    <meta>
     <profile value="https://fhir.hl7.org.uk/STU3/StructureDefinition/CareConnect-PractitionerRole-1"/>
    </meta>
    <practitioner>
     <reference value="urn:uuid:619ac49c-9409-4979-8594-c47d33ef6bfc"/>
    </practitioner>
    <organization>
     <reference value="urn:uuid:3faff938-09cb-4409-bd20-0c47d2fbdf6e"/>
    </organization>
    <code>
     <coding>
      <system value="https://fhir.hl7.org.uk/STU3/CodeSystem/CareConnect-SDSJobRoleName-1"/>
      <code value="R0050"/>
      <display value="Consultant"/>
     </coding>
    </code>
   </PractitionerRole>
  </resource>
 </entry>
 <!--Practitioner-Example-3-->
 <entry>
  <fullUrl value="urn:uuid:296a7f30-033f-4f31-b846-0c2e85836428"/>
  <resource>
   <Practitioner>
    <id value="296a7f30-033f-4f31-b846-0c2e85836428"/>
    <meta>
     <profile value="https://fhir.hl7.org.uk/STU3/StructureDefinition/CareConnect-Practitioner-1"/>
    </meta>
    <name>
     <family value="Snodgrass"/>
     <given value="Susan"/>
    </name>
    <address>
     <use value="work"/>
     <line value="Community Macmillan Team"/>
     <line value="Endowdown Centre"/>
     <postalCode value="BM5 0TP "/>
    </address>
   </Practitioner>
  </resource>
 </entry>
 <!--Practitioner role - Community Macmillan team-->
 <entry>
  <fullUrl value="urn:uuid:ef4f6df5-5081-4684-9239-b440c2169a9e"/>
  <resource>
   <PractitionerRole>
    <id value="ef4f6df5-5081-4684-9239-b440c2169a9e"/>
    <meta>
     <profile value="https://fhir.hl7.org.uk/STU3/StructureDefinition/CareConnect-PractitionerRole-1"/>
    </meta>
    <practitioner>
     <reference value="urn:uuid:296a7f30-033f-4f31-b846-0c2e85836428"/>
    </practitioner>
    <organization>
     <reference value="urn:uuid:0cd724c5-77a2-41fd-9428-bf606e5c8d31"/>
    </organization>
    <code>
     <coding>
      <system value="https://fhir.hl7.org.uk/STU3/CodeSystem/CareConnect-SDSJobRoleName-1"/>
      <code value="R1976"/>
      <display value="Community Team Manager"/>
     </coding>
    </code>
   </PractitionerRole>
  </resource>
 </entry>
 <!--Practitioner-Example-4-->
 <entry>
  <fullUrl value="urn:uuid:d3767dcf-8211-41ce-a07f-906c0399c757"/>
  <resource>
   <Practitioner>
    <id value="d3767dcf-8211-41ce-a07f-906c0399c757"/>
    <meta>
     <profile value="https://fhir.hl7.org.uk/STU3/StructureDefinition/CareConnect-Practitioner-1"/>
    </meta>
    <name>
     <family value="Hawkins"/>
     <prefix value="Professor"/>
    </name>
    <address>
     <use value="work"/>
     <line value="Oncology Department"/>
     <line value="St. Crispin's Hospital"/>
     <city value="Donaldstown"/>
     <postalCode value="DO5 7TP"/>
    </address>
   </Practitioner>
  </resource>
 </entry>
 <!--Practitioner role - 4-->
 <entry>
  <fullUrl value="urn:uuid:a3e9f6f0-801e-49b2-b7f1-e62c47fb7498"/>
  <resource>
   <PractitionerRole>
    <id value="a3e9f6f0-801e-49b2-b7f1-e62c47fb7498"/>
    <meta>
     <profile value="https://fhir.hl7.org.uk/STU3/StructureDefinition/CareConnect-PractitionerRole-1"/>
    </meta>
    <practitioner>
     <reference value="urn:uuid:d3767dcf-8211-41ce-a07f-906c0399c757"/>
    </practitioner>
    <organization>
     <reference value="urn:uuid:3faff938-09cb-4409-bd20-0c47d2fbdf6e"/>
    </organization>
    <code>
     <coding>
      <system value="https://fhir.hl7.org.uk/STU3/CodeSystem/CareConnect-SDSJobRoleName-1"/>
      <code value="R0050"/>
      <display value="Consultant"/>
     </coding>
    </code>
    <specialty>
     <coding>
      <system value="http://snomed.info/sct"/>
      <code value="394593009"/>
      <display value="Medical oncology"/>
     </coding>
    </specialty>
   </PractitionerRole>
  </resource>
 </entry>
 <!--Practitioner-Example-5-->
 <entry>
  <fullUrl value="urn:uuid:92181479-95c0-49b8-9cf3-7ffb42823915"/>
  <resource>
   <Practitioner>
    <id value="92181479-95c0-49b8-9cf3-7ffb42823915"/>
    <meta>
     <profile value="https://fhir.hl7.org.uk/STU3/StructureDefinition/CareConnect-Practitioner-1"/>
    </meta>
    <name>
     <family value="Bromage"/>
     <prefix value="Mr"/>
    </name>
    <address>
     <use value="work"/>
     <line value="Urology Department"/>
     <line value="St. Crispin's Hospital"/>
     <city value="Donaldstown"/>
     <postalCode value="DO5 7TP"/>
    </address>
   </Practitioner>
  </resource>
 </entry>
 <!--Practitioner role - 5-->
 <entry>
  <fullUrl value="urn:uuid:889a476e-279a-4e2f-a2ce-a9ca75df33de"/>
  <resource>
   <PractitionerRole>
    <id value="889a476e-279a-4e2f-a2ce-a9ca75df33de"/>
    <meta>
     <profile value="https://fhir.hl7.org.uk/STU3/StructureDefinition/CareConnect-PractitionerRole-1"/>
    </meta>
    <practitioner>
     <reference value="urn:uuid:92181479-95c0-49b8-9cf3-7ffb42823915"/>
    </practitioner>
    <organization>
     <reference value="urn:uuid:3faff938-09cb-4409-bd20-0c47d2fbdf6e"/>
    </organization>
    <code>
     <coding>
      <system value="https://fhir.hl7.org.uk/STU3/CodeSystem/CareConnect-SDSJobRoleName-1"/>
      <code value="R0050"/>
      <display value="Consultant"/>
     </coding>
    </code>
    <specialty>
     <coding>
      <system value="http://snomed.info/sct"/>
      <code value="394612005"/>
      <display value="Urology"/>
     </coding>
    </specialty>
   </PractitionerRole>
  </resource>
 </entry>
 <!--Organization-Example-1-->
 <entry>
  <fullUrl value="urn:uuid:2f63f514-d18c-4f45-8c3e-696621271def"/>
  <resource>
   <Organization>
    <id value="2f63f514-d18c-4f45-8c3e-696621271def"/>
    <meta>
     <profile value="https://fhir.hl7.org.uk/STU3/StructureDefinition/CareConnect-Organization-1"/>
    </meta>
    <identifier>
     <system value="https://fhir.nhs.uk/Id/ods-organization-code"/>
     <value value="A111111"/>
    </identifier>
    <type>
     <coding>
      <system value="http://hl7.org/fhir/organization-type"/>
      <code value="prov"/>
      <display value="Healthcare Provider"/>
     </coding>
    </type>
    <name value="Canvas Health Centre"/>
    <telecom>
     <system value="email"/>
     <value value="Admin@MMC.co.uk"/>
    </telecom>
    <address>
     <use value="work"/>
     <line value="27 Acacia Road"/>
     <postalCode value="BM9 6PM"/>
    </address>
   </Organization>
  </resource>
 </entry>
 <!--Organization-Example-2-->
 <entry>
  <fullUrl value="urn:uuid:3faff938-09cb-4409-bd20-0c47d2fbdf6e"/>
  <resource>
   <Organization>
    <id value="3faff938-09cb-4409-bd20-0c47d2fbdf6e"/>
    <meta>
     <profile value="https://fhir.hl7.org.uk/STU3/StructureDefinition/CareConnect-Organization-1"/>
    </meta>
    <identifier>
     <system value="https://fhir.nhs.uk/Id/ods-organization-code"/>
     <value value="RX0000"/>
    </identifier>
    <type>
     <coding>
      <system value="http://hl7.org/fhir/organization-type"/>
      <code value="prov"/>
      <display value="Healthcare Provider"/>
     </coding>
    </type>
    <name value="St Crispin's Hospital"/>
    <telecom>
     <system value="phone"/>
     <value value="01234 567890"/>
     <use value="work"/>
    </telecom>
    <address>
     <line value="St Crispin's Hospital"/>
     <line value="Donaldstown"/>
     <postalCode value="DO5 7TP"/>
    </address>
   </Organization>
  </resource>
 </entry>
 <!--Organization-Example-Community Macmillan Team -->
 <entry>
  <fullUrl value="urn:uuid:0cd724c5-77a2-41fd-9428-bf606e5c8d31"/>
  <resource>
   <Organization>
    <id value="0cd724c5-77a2-41fd-9428-bf606e5c8d31"/>
    <meta>
     <profile value="https://fhir.hl7.org.uk/STU3/StructureDefinition/CareConnect-Organization-1"/>
    </meta>
    <identifier>
     <system value="https://fhir.nhs.uk/Id/ods-organization-code"/>
     <value value="RY5555"/>
    </identifier>
    <type>
     <coding>
      <system value="http://hl7.org/fhir/organization-type"/>
      <code value="prov"/>
      <display value="Healthcare Provider"/>
     </coding>
    </type>
    <name value="Community Macmillan Team"/>
    <address>
     <line value="Community Macmillan Team"/>
     <line value="Endowdown Centre"/>
     <postalCode value="BM5 0TP"/>
    </address>
   </Organization>
  </resource>
 </entry>
 <entry>
  <fullUrl value="urn:uuid:5824d803-9adb-4fa8-9cba-11a0ea9105d0"/>
  <resource>
   <List>
    <id value="5824d803-9adb-4fa8-9cba-11a0ea9105d0"/>
    <meta>
     <profile value="https://fhir.nhs.uk/STU3/StructureDefinition/ITK-Allergies-List-1"/>
    </meta>
    <identifier>
     <system value="https://tools.ietf.org/html/rfc4122"/>
     <value value="0be34de6-c99e-459f-a7e5-3f668dbe54f3"/>
    </identifier>
    <status value="current"/>
    <mode value="snapshot"/>
    <code>
     <coding>
      <system value="http://hl7.org/fhir/list-example-use-codes"/>
      <code value="allergies"/>
      <display value="Allergies"/>
     </coding>
    </code>
    <subject>
     <reference value="urn:uuid:159c7259-4253-4e21-90c7-87497a2ba863"/>
    </subject>
    <emptyReason>
     <coding>
      <system value="http://snomed.info/sct"/>
      <code value="716186003"/>
      <display value="No known allergy"/>
     </coding>
    </emptyReason>
   </List>
  </resource>
 </entry>
 <!--observation for occupation-->
 <entry>
  <fullUrl value="urn:uuid:3da3e1b0-76a6-411f-9b56-d19b73f8d901"/>
  <resource>
   <Observation>
    <id value="3da3e1b0-76a6-411f-9b56-d19b73f8d901"/>
    <meta>
     <profile value="https://fhir.nhs.uk/STU3/StructureDefinition/CareConnect-ITK-OccupationalHistory-Observation-1"/>
    </meta>
    <identifier>
     <system value="https://tools.ietf.org/html/rfc4122"/>
     <value value="2e320870-f8b5-4f6a-9498-a1eef6e99202"/>
    </identifier>
    <status value="final"/>
    <code>
     <coding>
      <system value="http://snomed.info/sct"/>
      <code value="14679004"/>
      <display value="Occupation"/>
     </coding>
    </code>
    <subject>
     <reference value="urn:uuid:159c7259-4253-4e21-90c7-87497a2ba863"/>
    </subject>
    <effectivePeriod>
     <start value="2012-06-01"/>
    </effectivePeriod>
    <performer>
     <reference value="urn:uuid:619ac49c-9409-4979-8594-c47d33ef6bfc"/>
    </performer>
    <valueCodeableConcept>
     <coding>
      <system value="http://snomed.info/sct"/>
      <code value="73438004"/>
      <display value="Unemployed"/>
     </coding>
    </valueCodeableConcept>
   </Observation>
  </resource>
 </entry>
</Bundle>
