<?xml version="1.0" encoding="UTF-8"?>
<!--This xml example is for illustrative purposes only and has not been clinically verified-->
<Bundle xmlns="http://hl7.org/fhir" xmlns:xsi="http://www.w3.org/2001/XMLSchema-instance" xsi:schemaLocation="http://hl7.org/fhir file:///C:/GitHubRepo/ITK3-FHIR-eDischarge/schemas/bundle.xsd">
	<id value="cb5626c6-ef5b-486d-9de9-e193d7cfd9d0"/>
	<meta>
  <profile value="https://fhir.nhs.uk/STU3/StructureDefinition/ITK-Document-Bundle-1"/>
	</meta>
	 <identifier>
  <system value="https://tools.ietf.org/html/rfc4122"/>
  <value value="434f40c3-de6c-435a-914d-fb274b9a5e99"/>
 </identifier>
	<type value="document"/>
	<!--Emergency Care Composition-->
	<entry>
	<fullUrl value="urn:uuid:6c15fc6e-e017-4ead-b12a-d7d05370d1c4"/>
		<resource>
			<Composition>
				<id value="6c15fc6e-e017-4ead-b12a-d7d05370d1c4"/>
				<meta>
					<profile value="https://fhir.nhs.uk/STU3/StructureDefinition/ITK-ECD-Composition-1"/>
				</meta>
    <!-- Information Recipient 1 - the patient's community nurse -->
    <extension url="https://fhir.nhs.uk/STU3/StructureDefinition/Extension-ITK-InformationRecipient-1">
					<valueReference>
						<reference value="urn:uuid:0105ae6a-a9a2-416f-b57e-e274ac9a48a2"/>
					</valueReference>
				</extension>
    <!-- Information Recipient 2 - the patient's GP -->
    <extension url="https://fhir.nhs.uk/STU3/StructureDefinition/Extension-ITK-InformationRecipient-1">
					<valueReference>
						<reference value="urn:uuid:bfeb7b70-ac1f-4a14-a3b9-5842a9e7b761"/>
					</valueReference>
				</extension>
    <!-- Extension to carry details of the Correspondence Care Setting Type. -->
    <extension url="https://fhir.nhs.uk/STU3/StructureDefinition/Extension-ITK-CareSettingType-1">
					<valueCodeableConcept>
						<coding>
							<system value="http://snomed.info/sct"/>
							<code value="394576009"/>
							<display value="Accident &amp; emergency"/>
						</coding>
					</valueCodeableConcept>
				</extension>
				<identifier>
					<value value="2d361270-039f-4a48-827b-ef255ff8b6c4"/>
				</identifier>
   <!--The workflow/clinical status of this composition. The status is a marker for the clinical standing of the document.-->
	<status value="final"/>
				<type>
     <!--Discharge Summary document type-->
					<coding>
						<system value="http://snomed.info/sct"/>
						<code value="373942005"/>
						<display value="Discharge summary"/>
					</coding>
				</type>
				<!--Reference to the patient subject of the Composition-->
			<subject>
					<reference value="urn:uuid:c8225cc8-8026-466f-80f8-fc2832a4b9d5"/>
				</subject>
	<!--Reference to the clinical encounter or type of care this documentation is associated with.-->
		<encounter>
					<reference value="urn:uuid:9a20cb92-354a-4015-82ec-ab0252efc5b9"/>
		</encounter>
<!--The composition editing time, when the composition was last logically changed by the author.-->
    <date value="2015-02-12T19:00:00+00:00"/>
  <!--Identifies who is responsible for the information in the composition, not necessarily who typed it in-->
				<author>
					<reference value="urn:uuid:369d88a8-9f6b-407f-8560-6ee9d7ccc8bb"/>
				</author>
    <title value="Discharge summary"/>
<!--The code specifying the level of confidentiality of the Composition.-->
    <confidentiality value="V"/>
   <!--Identifies the organization responsible for ongoing maintenance of and access to the composition/document information.-->
				<custodian>
					<reference value="urn:uuid:120633ae-1a20-4e0e-b807-b78fb59679cc"/>
			</custodian>
				<section>
					<title value="Allergies and adverse reactions"/>
					<code>
						<coding>
							<system value="http://snomed.info/sct"/>
							<code value="886921000000105"/>
							<display value="Allergies and adverse reactions"/>
						</coding>
					</code>
					<text>
						<status value="generated"/>
						<div xmlns="http://www.w3.org/1999/xhtml">
							<table width="100%">
								<tbody>
									<tr>
										<th>Causative agent</th>
										<td>Penicillin</td>
									</tr>
									<tr>
										<th>Description of reaction</th>
										<td>Rash. No swelling/anaphylaxis</td>
									</tr>
								</tbody>
							</table>
						</div>
					</text>
					<orderedBy>
						<coding>
							<system value="http://hl7.org/fhir/list-order"/>
							<code value="system"/>
							<display value="Sorted by System"/>
						</coding>
					</orderedBy>
   		<entry>
						<reference value="urn:uuid:b37c89af-c5da-425f-8e6d-58c043ccf94b"/>
					</entry>
				</section>
				<section>
					<title value="Attendance details"/>
					<code>
						<coding>
							<system value="http://snomed.info/sct"/>
							<code value="1077881000000105"/>
							<display value="Attendance details"/>
						</coding>
					</code>
					<text>
						<status value="generated"/>
						<div xmlns="http://www.w3.org/1999/xhtml">
							<table width="100%">
								<tbody>
									<tr>
										<th>Date and time of arrival</th>
										<td>12-Feb-2015 09:00</td>
									</tr>
									</tbody>
							</table>
						</div>
					</text>
				</section>
								<section>
					<title value="Clinical narrative"/>
					<code>
						<coding>
							<system value="http://snomed.info/sct"/>
							<code value="1077901000000108"/>
							<display value="Clinical narrative"/>
						</coding>
					</code>
					<text>
						<status value="generated"/>
						<div xmlns="http://www.w3.org/1999/xhtml">
							<table width="100%">
								<tbody>
									<tr>
										<th>Clinical narrative</th>
									</tr>
					     <tr>
          <td><p>60 year old man complaining of chest pain lasting around 2 hours.</p><p>Examination unremarkable.</p><p>Inferior ischaemic changes on ECGs.</p></td>
         </tr>
								</tbody>
							</table>
							<table>
								<tbody>
									<tr>
										<td>
											<pre>
Full Blood Count      
      
Test						Value			Units			Reference Range
White Cell Count				11.1			x10*9/L			3.5 - 10.0
Red Cell Count					5.0			x10*12/L		4.25 - 5.75 
Haemoglobin					150			g/L			13.0 - 17.0
Haematocrit					0.230			L/L			0.400 - 0.500
Mean Cell Volume				90			fL			84 - 98
Mean Cell Hb					33.0			pg			27.5 - 32.0
Mean Cell Hb Con				34.0			pg			31.0 - 35.0
RDW						12.0			%			&lt; 14.5
Platelet Count					300			x10*9/L			150 - 400

Machine Differential      
      
Test						Value			Units			Reference Range
Neutrophils					7.0			x10*9/L			1.7 - 7.5
Lymphocytes					3.5			x10*9/L			1.0 - 3.5
Monocytes					0.3			x10*9/L			&lt; 0.6
Eosinophils					0.4			x10*9/L			&lt; 0.4
Basophils					0.1			x10*9/L			&lt; 0.1
LUCs						0.2			x10*9/L			&lt; 0.4
      </pre>
										</td>
									</tr>
								</tbody>
							</table>
						</div>
					</text>
				</section>
				<section>
					<title value="Diagnoses"/>
					<code>
						<coding>
							<system value="http://snomed.info/sct"/>
							<code value="887161000000102"/>
							<display value="Diagnoses"/>
						</coding>
					</code>
					<text>
						<status value="generated"/>
						<div xmlns="http://www.w3.org/1999/xhtml">
							<table width="100%">
								<tbody>
								     <tr>
          <th>Diagnosis</th>
          <td><p>Chest pain</p><p>ECG: inferior ischaemia</p></td>
          </tr>
           <tr>
          <th>Comment</th>
          <td>Chest pain onset date/time: 2015-02-12 08:00. Inferior ischaemia asserted 2015-02-12 12:00.</td>
          </tr>
								</tbody>
							</table>
						</div>
					</text>
					<orderedBy>
						<coding>
							<system value="http://hl7.org/fhir/list-order"/>
							<code value="system"/>
							<display value="Sorted by System"/>
						</coding>
					</orderedBy>
					<entry>
						<reference value="urn:uuid:80e53ab8-dcec-4b4d-aec2-eec9e00b5982"/>
					</entry>
					<entry>
						<reference value="urn:uuid:50dc3efe-1826-4ee0-bcba-439c4fb38ff4"/>
					</entry>
					</section>
						<section>
					<title value="Discharge details"/>
					<code>
						<coding>
							<system value="http://snomed.info/sct"/>
							<code value="886811000000106"/>
							<display value="Discharge details"/>
						</coding>
					</code>
					<text>
						<status value="generated"/>
						<div xmlns="http://www.w3.org/1999/xhtml">
							<table width="100%">
								<tbody>
								  <tr>
          <th>Discharge destination</th>
          <td>Discharge to ward</td>
         </tr>
									 <tr>
          <th>Discharge status</th>
          <td>Streamed from emergency department to urgent care service following initial assessment</td>
         </tr>
										<tr>
										<th>Date and time of discharge</th>
										<td>12-Feb-2015 18:00</td>
									</tr>
									</tbody>
							</table>
						</div>
					</text>
					<orderedBy>
						<coding>
							<system value="http://hl7.org/fhir/list-order"/>
							<code value="system"/>
							<display value="Sorted by System"/>
						</coding>
					</orderedBy>
     <!--Reference to the Encounter entry as the source of information for this section-->
					<entry>
						<reference value="urn:uuid:9a20cb92-354a-4015-82ec-ab0252efc5b9"/>
					</entry>
				</section>
				<section>
					<title value="Medications and medical devices"/>
					<code>
						<coding>
							<system value="http://snomed.info/sct"/>
							<code value="933361000000108"/>
							<display value="Medications and medical devices"/>
						</coding>
					</code>
					<text>
						<status value="generated"/>
						<div xmlns="http://www.w3.org/1999/xhtml">
							<table width="100%">
								<tbody>
									<tr>
										<th>Medication name</th>
										<td>Ramipril</td>
									</tr>
									<tr>
          <th>Dose amount</th>
										<td>2.5mg</td>
									</tr>
									<tr>
         <th>Dose timing</th>
										<td>OD</td>
									</tr>
									<tr>
										<th>Route</th>
										<td>oral</td>
									</tr>
									<tr>
          <th>Medication change</th>
          <td>Status: Continued</td>
									</tr>
								</tbody>
							</table>
							<table width="100%">
								<tbody>
									<tr>
										<th>Medication name</th>
										<td>Omeprazole</td>
									</tr>
									<tr>
          <th>Dose amount</th>
										<td>20mg</td>
									</tr>
									<tr>
         <th>Dose timing</th>
										<td>OD/PRN</td>
									</tr>
									<tr>
										<th>Route</th>
										<td>oral</td>
									</tr>
									<tr>
          <th>Medication change</th>
          <td>Status: Continued</td>
									</tr>
								</tbody>
							</table>
							<table width="100%">
								<tbody>
									<tr>
										<th>Medication name</th>
										<td>Aspirin</td>
									</tr>
									<tr>
          <th>Dose amount</th>
										<td>75mg</td>
									</tr>
									<tr>
         <th>Dose timing</th>
										<td>OD</td>
									</tr>
									<tr>
										<th>Route</th>
										<td>oral</td>
									</tr>
									<tr>
          <th>Medication change</th>
          <td>Status: Continued</td>
									</tr>
								</tbody>
							</table>
							<table width="100%">
								<tbody>
									<tr>
										<th>Medication name</th>
										<td>Clopidogrel</td>
									</tr>
									<tr>
          <th>Dose amount</th>
										<td>75mg</td>
									</tr>
									<tr>
         <th>Dose timing</th>
										<td>OD</td>
									</tr>
									<tr>
										<th>Route</th>
										<td>oral</td>
									</tr>
									<tr>
										<th>Medication recommendations</th>
										<td>1 year then stop</td>
									</tr>
								</tbody>
							</table>
							<table width="100%">
								<tbody>
									<tr>
										<th>Medication name</th>
										<td>Simvastatin</td>
									</tr>
									<tr>
          <th>Dose amount</th>
										<td>40mg</td>
									</tr>
									<tr>
         <th>Dose timing</th>
										<td>OD</td>
									</tr>
									<tr>
										<th>Route</th>
										<td>oral</td>
									</tr>
									<tr>
          <th>Medication change</th>
          <td>Status: Continued</td>
									</tr>
								</tbody>
							</table>
							<table width="100%">
								<tbody>
									<tr>
										<th>Medication name</th>
										<td>Bisoprolol</td>
									</tr>
									<tr>
          <th>Dose amount</th>
										<td>5mg</td>
									</tr>
									<tr>
         <th>Dose timing</th>
										<td>OD</td>
									</tr>
									<tr>
										<th>Route</th>
										<td>oral</td>
									</tr>
									<tr>
										<th>Medication recommendations</th>
										<td>Uptitrate according to BP and HR</td>
									</tr>
								</tbody>
							</table>
						</div>
					</text>
					<orderedBy>
						<coding>
							<system value="http://hl7.org/fhir/list-order"/>
							<code value="system"/>
							<display value="Sorted by System"/>
						</coding>
					</orderedBy>
     <!--Reference to medication list-->
					<entry>
						<reference value="urn:uuid:e3c8b45f-22d4-4ce6-970c-10a959831dca"/>
					</entry>
				</section>
						<section>
					<title value="Person completing record"/>
					<code>
						<coding>
							<system value="http://snomed.info/sct"/>
							<code value="887231000000104"/>
							<display value="Person completing record"/>
						</coding>
					</code>
					<text>
						<status value="generated"/>
						<div xmlns="http://www.w3.org/1999/xhtml">
							<table width="100%">
								<tbody>
									<tr>
										<th>Name</th>
										<td>Dr Paul Rastall</td>
									</tr>
										<tr>
										<th>Professional identifier</th>
										<td>6122477</td>
									</tr>
							</tbody>
							</table>
						</div>
					</text>
				</section>
					<section>
					<title value="Plan and requested actions"/>
					<code>
						<coding>
							<system value="http://snomed.info/sct"/>
							<code value="887201000000105"/>
							<display value="Plan and requested actions"/>
						</coding>
					</code>
					<text>
						<status value="generated"/>
						<div xmlns="http://www.w3.org/1999/xhtml">
							<table width="100%">
								<tbody>
								<tr>
          <th>Action</th>
          <td>Patient to be admitted to Cramer ward for further tests to investigate causes of his chest pain.<p>Status: Completed</p></td>
         </tr>			
								</tbody>
							</table>
						</div>
					</text>
				</section>
				<section>
					<title value="Presenting complaints or issues"/>
					<code>
						<coding>
							<system value="http://snomed.info/sct"/>
							<code value="886891000000102"/>
							<display value="Presenting complaints or issues"/>
						</coding>
					</code>
					<text>
						<status value="generated"/>
						<div xmlns="http://www.w3.org/1999/xhtml">
							<table width="100%">
								<tbody>
									<tr>
										<th>Presenting complaint or issue</th>
										<td>Chest pain</td>
									</tr>
								</tbody>
							</table>
						</div>
					</text>
			</section>
			 <section>
     <title value="Procedures"/>
     <code>
      <coding>
       <system value="http://snomed.info/sct"/>
       <code value="887171000000109"/>
       <display value="Procedures"/>
      </coding>
     </code>
     <text>
      <status value="generated"/>
      <div xmlns="http://www.w3.org/1999/xhtml">
       <table>
        <tbody>
         <tr>
          <th>Procedure</th>
          <td>Electrocardiographic monitoring</td>
         </tr>
        </tbody>
       </table>
      </div>
     </text>
      <orderedBy>
      <coding>
       <system value="http://hl7.org/fhir/list-order"/>
       <code value="system"/>
       <display value="Sorted by System"/>
      </coding>
     </orderedBy>
     <!--reference to further information carried in the procedure resource-->
     <entry>
      <reference value="urn:uuid:1a65a852-c14e-42ae-ae88-46ca1dc4d67f"/>
     </entry>
    </section>
							<section>
					<title value="Contact for further information"/>
					<code>
						<coding>
							<system value="http://snomed.info/sct"/>
							<code value="1077931000000102"/>
							<display value="Contact for further information"/>
						</coding>
					</code>
					<text>
						<status value="generated"/>
						<div xmlns="http://www.w3.org/1999/xhtml">
							<table width="100%">
								<tbody>
									<tr>
										<th>Contact for further information</th>
										<td>Dr Paul Rastall Tel: 0113 6323200</td>
									</tr>
								</tbody>
							</table>
						</div>
					</text>
				</section>
							<section>
					<title value="Referrer details"/>
					<code>
						<coding>
							<system value="http://snomed.info/sct"/>
							<code value="1052891000000108"/>
							<display value="Referrer details"/>
						</coding>
					</code>
					<text>
						<status value="generated"/>
						<div xmlns="http://www.w3.org/1999/xhtml">
							<table width="100%">
								<tbody>
									<tr>
										<th>Referrer details</th>
										<td>Self-referral to accident and emergency department</td>
									</tr>
								</tbody>
							</table>
						</div>
					</text>
				</section>
			</Composition>
		</resource>
	</entry>
	<!--Encounter Example 1-->
	<entry>
		<fullUrl value="urn:uuid:9a20cb92-354a-4015-82ec-ab0252efc5b9"/>
		<resource>
<!--Encounter resource providing context for the discharge-->
			<Encounter>
				<id value="9a20cb92-354a-4015-82ec-ab0252efc5b9"/>
				<meta>
     <profile value="https://fhir.nhs.uk/STU3/StructureDefinition/CareConnect-ITK-Encounter-1"/>
				</meta>
				<identifier>
					<system value="https://tools.ietf.org/html/rfc4122"/>
					<value value="ff84120c-43fe-4059-8839-dad2c4f9869c"/>
				</identifier>
				<status value="finished"/>
				<class>
     <system value="http://hl7.org/fhir/v3-ActEncounterCode"/>
     <code value="EMER"/>
     <display value="emergency"/>
    </class>
				<type>
					<coding>
						<system value="http://snomed.info/sct"/>
						<code value="4525004"/>
						<display value="Emergency department patient visit"/>
					</coding>
				</type>
   <!--Reference to the patient as the subject of the Encounter-->
			<subject>
			<reference value="urn:uuid:c8225cc8-8026-466f-80f8-fc2832a4b9d5"/>
			</subject>
			 <!--Reference to the participants present during the encounter-->
    <participant>
     <type>
      <coding>
       <system value="http://hl7.org/fhir/v3/ParticipationType"/>
       <code value="PART"/>
       <display value="Participation"/>
      </coding>
     </type>
     <individual>
      <reference value="urn:uuid:c6d67f90-7b84-4462-ab33-3777c56afd4a"/>
     </individual>
    </participant>
 <participant>
     <type>
      <coding>
       <system value="http://hl7.org/fhir/v3/ParticipationType"/>
       <code value="DIS"/>
       <display value="discharger"/>
      </coding>
     </type>
     <individual>
        <reference value="urn:uuid:369d88a8-9f6b-407f-8560-6ee9d7ccc8bb"/>
     </individual>
    </participant>
					<period>
					<start value="2015-02-12T09:00:00+00:00"/>
					<end value="2015-02-12T18:00:00+00:00"/>
				</period>
				<!--Reason the encounter occurs-->
			<reason>
<coding>
 <system value="http://snomed.info/sct"/>
  <code value="29857009"/>
  <display value="Chest pain"/>
 </coding>
</reason>
<hospitalization>
<!--From where patient was admitted-->
     <admitSource>
      <coding>
       <system value="http://hl7.org/fhir/admit-source"/>
       <code value="other"/>
       <display value="Other"/>
      </coding>
      <text value="Patient admitted from home"/>
     </admitSource>
     <!--Reference to location where the patient is discharged to-->
     <destination>
	<reference value="urn:uuid:50ed9220-2a96-47ba-9c28-d4a1e3ecd748"/>
</destination>
<!--	Category or kind of location after discharge-->
     <dischargeDisposition>
      <coding>
       <system value="http://hl7.org/fhir/discharge-disposition"/>
       <code value="oth"/>
       <display value="Other"/>
      </coding>
      <text value="Discharged to hospital ward"/>
     </dischargeDisposition>
    </hospitalization>
    <!--List of locations where the patient has been-->
    <location>
     <location>
   	<reference value="urn:uuid:64e97568-a879-4ebc-b506-a360fca0c286"/>  
   	</location>
   	<period>
					<start value="2015-02-12T09:00:00+00:00"/>
					<end value="2015-02-12T18:00:00+00:00"/>
</period>
</location>
				</Encounter>
		</resource>
	</entry>
	 <!--Medication list-->
 <entry>
  <fullUrl value="urn:uuid:e3c8b45f-22d4-4ce6-970c-10a959831dca"/>
  <resource>
   <List>
    <id value="e3c8b45f-22d4-4ce6-970c-10a959831dca"/>
    <meta>
     <profile value="https://fhir.nhs.uk/STU3/StructureDefinition/ITK-Medication-List-1"/>
    </meta>
    <identifier>
     <system value="https://tools.ietf.org/html/rfc4122"/>
     <value value="d4f7c451-1523-4525-a5ed-420439bf04f9"/>
    </identifier>
    <status value="current"/>
    <mode value="snapshot"/>
    <!--Type of list-->
    <code>
     <coding>
      <system value="http://hl7.org/fhir/list-example-use-codes"/>
      <code value="medications"/>
      <display value="Medication List"/>
     </coding>
    </code>
    <!--Patient subject of the list-->
    <subject>
     <reference value="urn:uuid:c8225cc8-8026-466f-80f8-fc2832a4b9d5"/>
    </subject>
    <entry>
     <flag>
      <coding>
       <system value="https://fhir.nhs.uk/STU3/ITK-PatientMedicationChangeType-1"/>
       <code value="09"/>
       <display value="Active"/>
      </coding>
     </flag>
     <item>
      <reference value="urn:uuid:86442fdb-15ad-41cb-bd6a-f9a85db48d07"/>
     </item>
    </entry>
    <entry>
     <flag>
      <coding>
       <system value="https://fhir.nhs.uk/STU3/ITK-PatientMedicationChangeType-1"/>
       <code value="09"/>
       <display value="Active"/>
      </coding>
     </flag>
     <item>
      <reference value="urn:uuid:598c0803-062f-44c9-b767-f10377f141a8"/>
     </item>
    </entry>
    <entry>
     <flag>
      <coding>
       <system value="https://fhir.nhs.uk/STU3/ITK-PatientMedicationChangeType-1"/>
       <code value="09"/>
       <display value="Active"/>
      </coding>
     </flag>
     <item>
      <reference value="urn:uuid:77ae6ef0-7a02-4845-bbde-4a6e5739c727"/>
     </item>
    </entry>
    <entry>
     <flag>
      <coding>
       <system value="https://fhir.nhs.uk/STU3/ITK-PatientMedicationChangeType-1"/>
       <code value="09"/>
       <display value="Active"/>
      </coding>
     </flag>
     <item>
      <reference value="urn:uuid:0a7d4834-f1b5-4e2c-958d-6621c2ee6793"/>
     </item>
    </entry>
    <entry>
     <flag>
      <coding>
       <system value="https://fhir.nhs.uk/STU3/ITK-PatientMedicationChangeType-1"/>
       <code value="09"/>
       <display value="Active"/>
      </coding>
     </flag>
     <item>
      <reference value="urn:uuid:a5b3e68f-0f80-4077-96e7-c41a23e14fd0"/>
     </item>
    </entry>
    <entry>
     <flag>
      <coding>
       <system value="https://fhir.nhs.uk/STU3/ITK-PatientMedicationChangeType-1"/>
       <code value="09"/>
       <display value="Active"/>
      </coding>
     </flag>
     <item>
      <reference value="urn:uuid:4d3001fa-bf73-4a4a-b950-d9c6a4b405bb"/>
     </item>
    </entry>
   </List>
  </resource>
 </entry>
 <!--Medication statement example 1-->
 <entry>
  <fullUrl value="urn:uuid:86442fdb-15ad-41cb-bd6a-f9a85db48d07"/>
  <resource>
   <MedicationStatement>
    <id value="86442fdb-15ad-41cb-bd6a-f9a85db48d07"/>
    <meta>
     <profile value="https://fhir.nhs.uk/STU3/StructureDefinition/CareConnect-ITK-MedicationStatement-1"/>
    </meta>
    <status value="active"/>
    <medicationReference>
     <reference value="urn:uuid:f4d39a59-b5e0-4d35-af9e-e2ae09a2b7fb"/>
    </medicationReference>
    <subject>
     <reference value="urn:uuid:c8225cc8-8026-466f-80f8-fc2832a4b9d5"/>
    </subject>
    <taken value="y"/>
    <dosage>
     <text value="Take one tablet daily"/>
     <timing>
      <repeat>
       <frequency value="1"/>
       <period value="1"/>
       <periodUnit value="d"/>
      </repeat>
     </timing>
     <asNeededBoolean value="false"/>
     <route>
      <coding>
       <system value="http://snomed.info/sct"/>
       <code value="26643006"/>
       <display value="Oral"/>
      </coding>
     </route>
     <doseQuantity>
 <value value="2.5"/> 
      <unit value="mg"/> 
      <system value="http://unitsofmeasure.org"/> 
      <code value="mg"/> 
     </doseQuantity>
     <maxDosePerPeriod>
      <numerator>
       <value value="1"/>
       <unit value="Tablet"/>
       <system value="http://snomed.info/sct"/>
       <code value="385055001"/>
      </numerator>
      <denominator>
       <value value="1"/>
       <system value="http://unitsofmeasure.org"/>
       <code value="d"/>
      </denominator>
     </maxDosePerPeriod>
    </dosage>
   </MedicationStatement>
  </resource>
 </entry>
 <!--Medication Statement Example 2-->
 <entry>
  <fullUrl value="urn:uuid:598c0803-062f-44c9-b767-f10377f141a8"/>
  <resource>
   <MedicationStatement>
    <id value="598c0803-062f-44c9-b767-f10377f141a8"/>
    <meta>
     <profile value="https://fhir.nhs.uk/STU3/StructureDefinition/CareConnect-ITK-MedicationStatement-1"/>
    </meta>
    <status value="active"/>
    <medicationCodeableConcept>
     <coding>
      <system value="http://snomed.info/sct"/>
      <code value="407847009"/>
      <display value="Omeprazole 20mg gastro-resistant tablets"/>
     </coding>
    </medicationCodeableConcept>
    <subject>
     <reference value="urn:uuid:c8225cc8-8026-466f-80f8-fc2832a4b9d5"/>
    </subject>
    <taken value="y"/>
    <dosage>
     <text value="Take one tablet daily as needed"/>
     <timing>
      <repeat>
       <frequency value="1"/>
       <period value="1"/>
       <periodUnit value="d"/>
      </repeat>
     </timing>
     <asNeededBoolean value="true"/>
     <route>
      <coding>
       <system value="http://snomed.info/sct"/>
       <code value="26643006"/>
       <display value="Oral"/>
      </coding>
     </route>
     <doseQuantity>
      <value value="20"/> 
      <unit value="mg"/> 
      <system value="http://unitsofmeasure.org"/> 
      <code value="mg"/> 
     </doseQuantity>
    </dosage>
   </MedicationStatement>
  </resource>
 </entry>
 <!--Medication Statement Example 3-->
 <entry>
  <fullUrl value="urn:uuid:77ae6ef0-7a02-4845-bbde-4a6e5739c727"/>
  <resource>
   <MedicationStatement>
    <id value="77ae6ef0-7a02-4845-bbde-4a6e5739c727"/>
    <meta>
     <profile value="https://fhir.nhs.uk/STU3/StructureDefinition/CareConnect-ITK-MedicationStatement-1"/>
    </meta>
    <status value="active"/>
    <medicationCodeableConcept>
     <coding>
      <system value="http://snomed.info/sct"/>
      <code value="319781007"/>
      <display value="Aspirin 75mg gastro-resistant tablets"/>
     </coding>
    </medicationCodeableConcept>
    <subject>
     <reference value="urn:uuid:c8225cc8-8026-466f-80f8-fc2832a4b9d5"/>
    </subject>
    <taken value="y"/>
    <dosage>
     <text value="Take one tablet daily"/>
     <timing>
      <repeat>
       <frequency value="1"/>
       <period value="1"/>
       <periodUnit value="d"/>
      </repeat>
     </timing>
     <asNeededBoolean value="true"/>
     <route>
      <coding>
       <system value="http://snomed.info/sct"/>
       <code value="26643006"/>
       <display value="Oral"/>
      </coding>
     </route>
     <doseQuantity>
     <value value="75"/> 
      <unit value="mg"/> 
      <system value="http://unitsofmeasure.org"/> 
      <code value="mg"/> 
     </doseQuantity>
     <maxDosePerPeriod>
      <numerator>
       <value value="1"/>
       <unit value="Tablet"/>
       <system value="http://snomed.info/sct"/>
       <code value="385055001"/>
      </numerator>
      <denominator>
       <value value="1"/>
       <system value="http://unitsofmeasure.org"/>
       <code value="d"/>
      </denominator>
     </maxDosePerPeriod>
    </dosage>
   </MedicationStatement>
  </resource>
 </entry>
 <!--Medication Statement Example 4-->
 <entry>
  <fullUrl value="urn:uuid:0a7d4834-f1b5-4e2c-958d-6621c2ee6793"/>
  <resource>
   <MedicationStatement>
    <id value="0a7d4834-f1b5-4e2c-958d-6621c2ee6793"/>
    <meta>
     <profile value="https://fhir.nhs.uk/STU3/StructureDefinition/CareConnect-ITK-MedicationStatement-1"/>
    </meta>
    <status value="active"/>
    <medicationCodeableConcept>
     <coding>
      <system value="http://snomed.info/sct"/>
      <code value="319799004"/>
      <display value="Clopidogrel 75mg tablets"/>
     </coding>
    </medicationCodeableConcept>
    <subject>
     <reference value="urn:uuid:c8225cc8-8026-466f-80f8-fc2832a4b9d5"/>
    </subject>
    <taken value="y"/>
    <dosage>
     <text value="Take one tablet daily"/>
     <timing>
      <repeat>
       <frequency value="1"/>
       <period value="1"/>
       <periodUnit value="d"/>
      </repeat>
     </timing>
     <asNeededBoolean value="false"/>
     <route>
      <coding>
       <system value="http://snomed.info/sct"/>
       <code value="26643006"/>
       <display value="Oral"/>
      </coding>
     </route>
     <doseQuantity>
     <value value="75"/> 
      <unit value="mg"/> 
      <system value="http://unitsofmeasure.org"/> 
      <code value="mg"/> 
     </doseQuantity>
     <maxDosePerPeriod>
      <numerator>
       <value value="1"/>
       <unit value="Tablet"/>
       <system value="http://snomed.info/sct"/>
       <code value="385055001"/>
      </numerator>
      <denominator>
       <value value="1"/>
       <system value="http://unitsofmeasure.org"/>
       <code value="d"/>
      </denominator>
     </maxDosePerPeriod>
    </dosage>
   </MedicationStatement>
  </resource>
 </entry>
 <!--Medication Statement Example 5-->
 <entry>
  <fullUrl value="urn:uuid:a5b3e68f-0f80-4077-96e7-c41a23e14fd0"/>
  <resource>
   <MedicationStatement>
    <id value="a5b3e68f-0f80-4077-96e7-c41a23e14fd0"/>
    <meta>
     <profile value="https://fhir.nhs.uk/STU3/StructureDefinition/CareConnect-ITK-MedicationStatement-1"/>
    </meta>
    <status value="active"/>
    <medicationCodeableConcept>
     <coding>
      <system value="http://snomed.info/sct"/>
      <code value="320000009"/>
      <display value="Simvastatin 40mg tablets"/>
     </coding>
    </medicationCodeableConcept>
    <subject>
     <reference value="urn:uuid:c8225cc8-8026-466f-80f8-fc2832a4b9d5"/>
    </subject>
    <taken value="y"/>
    <dosage>
     <text value="Take one tablet daily"/>
     <timing>
      <repeat>
       <frequency value="1"/>
       <period value="1"/>
       <periodUnit value="d"/>
      </repeat>
     </timing>
     <asNeededBoolean value="false"/>
     <route>
      <coding>
       <system value="http://snomed.info/sct"/>
       <code value="26643006"/>
       <display value="Oral"/>
      </coding>
     </route>
     <doseQuantity>
      <value value="40"/> 
      <unit value="mg"/> 
      <system value="http://unitsofmeasure.org"/> 
      <code value="mg"/> 
     </doseQuantity>
     <maxDosePerPeriod>
      <numerator>
       <value value="1"/>
       <unit value="Tablet"/>
       <system value="http://snomed.info/sct"/>
       <code value="385055001"/>
      </numerator>
      <denominator>
       <value value="1"/>
       <system value="http://unitsofmeasure.org"/>
       <code value="d"/>
      </denominator>
     </maxDosePerPeriod>
    </dosage>
   </MedicationStatement>
  </resource>
 </entry>
 <!--Medication Statement Example 6-->
 <entry>
  <fullUrl value="urn:uuid:4d3001fa-bf73-4a4a-b950-d9c6a4b405bb"/>
  <resource>
   <MedicationStatement>
    <id value="4d3001fa-bf73-4a4a-b950-d9c6a4b405bb"/>
    <meta>
     <profile value="https://fhir.nhs.uk/STU3/StructureDefinition/CareConnect-ITK-MedicationStatement-1"/>
    </meta>
    <status value="active"/>
    <medicationCodeableConcept>
     <coding>
      <system value="http://snomed.info/sct"/>
      <code value="318590006"/>
      <display value="Bisoprolol 5mg tablets"/>
     </coding>
    </medicationCodeableConcept>
    <subject>
     <reference value="urn:uuid:c8225cc8-8026-466f-80f8-fc2832a4b9d5"/>
    </subject>
    <taken value="y"/>
    <dosage>
     <text value="Take one tablet daily"/>
     <timing>
      <repeat>
       <frequency value="1"/>
       <period value="1"/>
       <periodUnit value="d"/>
      </repeat>
     </timing>
     <asNeededBoolean value="false"/>
     <route>
      <coding>
       <system value="http://snomed.info/sct"/>
       <code value="26643006"/>
       <display value="Oral"/>
      </coding>
     </route>
     <doseQuantity>
   <value value="5"/> 
      <unit value="mg"/> 
      <system value="http://unitsofmeasure.org"/> 
      <code value="mg"/> 
     </doseQuantity>
     <maxDosePerPeriod>
      <numerator>
       <value value="1"/>
       <unit value="Tablet"/>
       <system value="http://snomed.info/sct"/>
       <code value="385055001"/>
      </numerator>
      <denominator>
       <value value="1"/>
       <system value="http://unitsofmeasure.org"/>
       <code value="d"/>
      </denominator>
     </maxDosePerPeriod>
    </dosage>
   </MedicationStatement>
  </resource>
 </entry>
 <!--Medication Example 1-->
 <entry>
  <fullUrl value="urn:uuid:f4d39a59-b5e0-4d35-af9e-e2ae09a2b7fb"/>
  <resource>
   <Medication>
    <id value="f4d39a59-b5e0-4d35-af9e-e2ae09a2b7fb"/>
    <meta>
     <profile value="https://fhir.hl7.org.uk/STU3/StructureDefinition/CareConnect-Medication-1"/>
    </meta>
    <code>
     <coding>
      <system value="http://snomed.info/sct"/>
      <code value="408050008"/>
      <display value="Ramipril 2.5mg tablets"/>
     </coding>
    </code>
   </Medication>
  </resource>
 </entry>
 <!--Medication Flag Example 1-->
 <entry>
  <fullUrl value="urn:uuid:65df28da-9c0b-4ebd-9ceb-91a76b662184"/>
  <resource>
   <Flag>
    <id value="65df28da-9c0b-4ebd-9ceb-91a76b662184"/>
    <meta>
     <profile value="https://fhir.nhs.uk/STU3/StructureDefinition/CareConnect-ITK-Medication-Flag-1"/>
    </meta>
    <!--This references the MedicationStatement.-->
    <extension url="https://fhir.nhs.uk/STU3/StructureDefinition/Extension-CareConnect-ITK-MedicationFlagAssociation-1">
     <valueReference>
      <reference value="urn:uuid:86442fdb-15ad-41cb-bd6a-f9a85db48d07"/>
     </valueReference>
    </extension>
    <identifier>
     <system value="https://tools.ietf.org/html/rfc4122"/>
     <value value="d6ae02d9-988d-489a-8173-5c997dc229e6"/>
    </identifier>
    <status value="active"/>
    <category>
     <coding>
      <system value="http://hl7.org/fhir/flag-category"/>
      <code value="drug"/>
      <display value="Drug"/>
     </coding>
    </category>
    <code>
     <coding>
      <system value="https://fhir.hl7.org.uk/STU3/CareConnect-MedicationFlag-1"/>
      <code value="continue-indefinitely"/>
      <display value="Continue Indefinitely"/>
     </coding>
    </code>
    <subject>
     <reference value="urn:uuid:c8225cc8-8026-466f-80f8-fc2832a4b9d5"/>
    </subject>
   </Flag>
  </resource>
 </entry>
  <!--Medication Flag Example 2-->
 <entry>
  <fullUrl value="urn:uuid:db0ed536-1a41-46b0-b84c-95f9d98b7240"/>
  <resource>
   <Flag>
    <id value="db0ed536-1a41-46b0-b84c-95f9d98b7240"/>
    <meta>
     <profile value="https://fhir.nhs.uk/STU3/StructureDefinition/CareConnect-ITK-Medication-Flag-1"/>
    </meta>
    <extension url="https://fhir.nhs.uk/STU3/StructureDefinition/Extension-CareConnect-ITK-MedicationFlagAssociation-1">
     <valueReference>
      <reference value="urn:uuid:598c0803-062f-44c9-b767-f10377f141a8"/>
     </valueReference>
    </extension>
    <identifier>
     <system value="https://tools.ietf.org/html/rfc4122"/>
     <value value="abb1c8d5-ec01-4a0d-af12-8251c1cf55fb"/>
    </identifier>
    <status value="active"/>
    <category>
     <coding>
      <system value="http://hl7.org/fhir/flag-category"/>
      <code value="drug"/>
      <display value="Drug"/>
     </coding>
    </category>
    <code>
     <coding>
      <system value="https://fhir.hl7.org.uk/STU3/CareConnect-MedicationFlag-1"/>
      <code value="continue-indefinitely"/>
      <display value="Continue Indefinitely"/>
     </coding>
    </code>
    <subject>
     <reference value="urn:uuid:c8225cc8-8026-466f-80f8-fc2832a4b9d5"/>
    </subject>
   </Flag>
  </resource>
 </entry>
   <!--Medication Flag Example 3-->
 <entry>
  <fullUrl value="urn:uuid:5ee441ef-a4d0-42b1-b1cd-fd02aae55dc5"/>
  <resource>
   <Flag>
    <id value="5ee441ef-a4d0-42b1-b1cd-fd02aae55dc5"/>
    <meta>
     <profile value="https://fhir.nhs.uk/STU3/StructureDefinition/CareConnect-ITK-Medication-Flag-1"/>
    </meta>
    <extension url="https://fhir.nhs.uk/STU3/StructureDefinition/Extension-CareConnect-ITK-MedicationFlagAssociation-1">
     <valueReference>
      <reference value="urn:uuid:77ae6ef0-7a02-4845-bbde-4a6e5739c727"/>
     </valueReference>
    </extension>
    <identifier>
     <system value="https://tools.ietf.org/html/rfc4122"/>
     <value value="f6ec52e6-e6db-45ba-8d7d-cf40b2d23c12"/>
    </identifier>
    <status value="active"/>
    <category>
     <coding>
      <system value="http://hl7.org/fhir/flag-category"/>
      <code value="drug"/>
      <display value="Drug"/>
     </coding>
    </category>
    <code>
     <coding>
      <system value="https://fhir.hl7.org.uk/STU3/CareConnect-MedicationFlag-1"/>
      <code value="continue-indefinitely"/>
      <display value="Continue Indefinitely"/>
     </coding>
    </code>
    <subject>
     <reference value="urn:uuid:c8225cc8-8026-466f-80f8-fc2832a4b9d5"/>
    </subject>
   </Flag>
  </resource>
 </entry>
   <!--Medication Flag Example 4-->
 <entry>
  <fullUrl value="urn:uuid:03c7add4-bae8-429a-a68c-5fb4f52bb0b0"/>
  <resource>
   <Flag>
    <id value="03c7add4-bae8-429a-a68c-5fb4f52bb0b0"/>
    <meta>
     <profile value="https://fhir.nhs.uk/STU3/StructureDefinition/CareConnect-ITK-Medication-Flag-1"/>
    </meta>
    <extension url="https://fhir.nhs.uk/STU3/StructureDefinition/Extension-CareConnect-ITK-MedicationFlagAssociation-1">
     <valueReference>
      <reference value="urn:uuid:0a7d4834-f1b5-4e2c-958d-6621c2ee6793"/>
     </valueReference>
    </extension>
    <identifier>
     <system value="https://tools.ietf.org/html/rfc4122"/>
     <value value="9ce24eb4-23a5-40fa-bbd5-e8dfb3ab6253"/>
    </identifier>
    <status value="active"/>
    <category>
     <coding>
      <system value="http://hl7.org/fhir/flag-category"/>
      <code value="drug"/>
      <display value="Drug"/>
     </coding>
    </category>
    <code>
     <coding>
      <system value="https://fhir.hl7.org.uk/STU3/CareConnect-MedicationFlag-1"/>
      <code value="do-not-discontinue"/>
      <display value="Do Not discontinue Medication"/>
     </coding>
     </code>
    <subject>
     <reference value="urn:uuid:c8225cc8-8026-466f-80f8-fc2832a4b9d5"/>
    </subject>
   </Flag>
  </resource>
 </entry>
    <!--Medication Flag Example 5-->
 <entry>
  <fullUrl value="urn:uuid:3f192708-7f5e-4d45-8e20-9aed4055f877"/>
  <resource>
   <Flag>
    <id value="3f192708-7f5e-4d45-8e20-9aed4055f877"/>
    <meta>
     <profile value="https://fhir.nhs.uk/STU3/StructureDefinition/CareConnect-ITK-Medication-Flag-1"/>
    </meta>
    <extension url="https://fhir.nhs.uk/STU3/StructureDefinition/Extension-CareConnect-ITK-MedicationFlagAssociation-1">
     <valueReference>
      <reference value="urn:uuid:a5b3e68f-0f80-4077-96e7-c41a23e14fd0"/>
     </valueReference>
    </extension>
    <identifier>
     <system value="https://tools.ietf.org/html/rfc4122"/>
     <value value="307123ec-6297-4687-b83d-fb1fbf292cc9"/>
    </identifier>
    <status value="active"/>
    <category>
     <coding>
      <system value="http://hl7.org/fhir/flag-category"/>
      <code value="drug"/>
      <display value="Drug"/>
     </coding>
    </category>
    <code>
     <coding>
      <system value="https://fhir.hl7.org.uk/STU3/CareConnect-MedicationFlag-1"/>
      <code value="continue-indefinitely"/>
      <display value="Continue Indefinitely"/>
     </coding>
    </code>
    <subject>
     <reference value="urn:uuid:c8225cc8-8026-466f-80f8-fc2832a4b9d5"/>
    </subject>
   </Flag>
  </resource>
 </entry>
 <!--Medication Flag Example 6-->
 <entry>
  <fullUrl value="urn:uuid:fa1095e9-8b3a-44f2-865d-e3d4bf1bb199"/>
  <resource>
   <Flag>
    <id value="fa1095e9-8b3a-44f2-865d-e3d4bf1bb199"/>
    <meta>
     <profile value="https://fhir.nhs.uk/STU3/StructureDefinition/CareConnect-ITK-Medication-Flag-1"/>
    </meta>
    <extension url="https://fhir.nhs.uk/STU3/StructureDefinition/Extension-CareConnect-ITK-MedicationFlagAssociation-1">
     <valueReference>
      <reference value="urn:uuid:4d3001fa-bf73-4a4a-b950-d9c6a4b405bb"/>
     </valueReference>
    </extension>
    <identifier>
     <system value="https://tools.ietf.org/html/rfc4122"/>
     <value value="d4e49e4a-bc9b-432a-9558-bce1f5ab7bad"/>
    </identifier>
    <status value="active"/>
    <category>
     <coding>
      <system value="http://hl7.org/fhir/flag-category"/>
      <code value="drug"/>
      <display value="Drug"/>
     </coding>
    </category>
    <code>
     <coding>
      <system value="https://fhir.hl7.org.uk/STU3/CareConnect-MedicationFlag-1"/>
      <code value="do-not-discontinue"/>
      <display value="Do Not discontinue Medication"/>
     </coding>
     <text value="Uptitrate according to BP and HR."/>
    </code>
    <subject>
     <reference value="urn:uuid:c8225cc8-8026-466f-80f8-fc2832a4b9d5"/>
    </subject>
   </Flag>
  </resource>
 </entry>
 <!--Allergies list-->
 <entry>
  <fullUrl value="urn:uuid:b37c89af-c5da-425f-8e6d-58c043ccf94b"/>
  <resource>
   <List>
    <id value="b37c89af-c5da-425f-8e6d-58c043ccf94b"/>
    <meta>
     <profile value="https://fhir.nhs.uk/STU3/StructureDefinition/ITK-Allergies-List-1"/>
    </meta>
    <identifier>
     <system value="https://tools.ietf.org/html/rfc4122"/>
     <value value="4344f700-a737-4796-9887-df3f3a546387"/>
    </identifier>
    <status value="current"/>
    <mode value="snapshot"/>
    <code>
     <coding>
      <system value="http://hl7.org/fhir/list-example-use-codes"/>
      <code value="allergies"/>
      <display value="Allergies"/>
     </coding>
    </code>
    <subject>
     <reference value="urn:uuid:c8225cc8-8026-466f-80f8-fc2832a4b9d5"/>
    </subject>
    <entry>
     <flag>
      <coding>
       <system value="https://fhir.nhs.uk/STU3/ITK-PatientAllergyChangeType-1"/>
       <code value="01"/>
       <display value="Unchanged"/>
      </coding>
     </flag>
     <item>
      <reference value="urn:uuid:4559a534-7ebc-4139-8ada-09627696710a"/>
     </item>
    </entry>
   </List>
  </resource>
 </entry>
 <entry>
  <fullUrl value="urn:uuid:4559a534-7ebc-4139-8ada-09627696710a"/>
  <resource>
   <AllergyIntolerance>
    <id value="4559a534-7ebc-4139-8ada-09627696710a"/>
    <meta>
     <profile value="https://fhir.hl7.org.uk/STU3/StructureDefinition/CareConnect-AllergyIntolerance-1"/>
    </meta>
    <identifier>
     <system value="https://tools.ietf.org/html/rfc4122"/>
     <value value="8c972218-c58a-4d8a-bc4a-c7ecedfb5d9f"/>
    </identifier>
    <clinicalStatus value="active"/>
    <verificationStatus value="confirmed"/>
    <type value="allergy"/>
    <category value="medication"/>
    <patient>
     <reference value="urn:uuid:c8225cc8-8026-466f-80f8-fc2832a4b9d5"/>
    </patient>
    <onsetDateTime value="2012-01-12T12:00:00+00:00"/>
    <reaction>
     <substance>
      <coding>
       <system value="http://snomed.info/sct"/>
       <code value="373270004"/>
       <display value="Penicillin -class of antibiotic-"/>
      </coding>
     </substance>
     <manifestation>
      <coding>
       <system value="http://snomed.info/sct"/>
       <code value="271807003"/>
       <display value="Eruption"/>
      </coding>
     </manifestation>
    </reaction>
   </AllergyIntolerance>
  </resource>
 </entry>
 <entry>
  <fullUrl value="urn:uuid:a3e9f507-1d6a-4a88-b984-85561e661856"/>
  <resource>
   <Flag>
    <id value="a3e9f507-1d6a-4a88-b984-85561e661856"/>
    <meta>
     <profile value="https://fhir.nhs.uk/STU3/StructureDefinition/ITK-Allergy-Flag-1"/>
    </meta>
    <extension url="https://fhir.nhs.uk/STU3/StructureDefinition/Extension-ITK-AllergyFlagDetail-1">
     <valueReference>
      <reference value="urn:uuid:4559a534-7ebc-4139-8ada-09627696710a"/>
     </valueReference>
    </extension>
    <identifier>
     <system value="https://tools.ietf.org/html/rfc4122"/>
     <value value="e167efb9-e185-422d-a9ad-507746f4d7d3"/>
    </identifier>
    <status value="active"/>
    <category>
     <coding>
      <system value="http://snomed.info/sct"/>
      <code value="886921000000105"/>
      <display value="Allergies and adverse reactions"/>
     </coding>
    </category>
    <code>
     <coding>
      <system value="http://snomed.info/sct"/>
      <code value="416098002"/>
      <display value="Drug allergy"/>
     </coding>
    </code>
    <subject>
     <reference value="urn:uuid:c8225cc8-8026-466f-80f8-fc2832a4b9d5"/>
    </subject>
   </Flag>
  </resource>
 </entry>
	 <!--Condition example 1-->
  <entry>
  <fullUrl value="urn:uuid:50dc3efe-1826-4ee0-bcba-439c4fb38ff4"/>
  <resource>
   <Condition>
    <id value="50dc3efe-1826-4ee0-bcba-439c4fb38ff4"/>
    <meta>
     <profile value="https://fhir.nhs.uk/STU3/StructureDefinition/CareConnect-ITK-Condition-1"/>
    </meta>
    <identifier>
     <system value="https://tools.ietf.org/html/rfc4122"/>
     <value value="4ebf5635-7bae-4051-80e4-5e7e06a2e055"/>
    </identifier>
    <clinicalStatus value="active"/>
    <verificationStatus value="confirmed"/>
    <category>
     <coding>
      <system value="https://fhir.hl7.org.uk/STU3/CareConnect-ConditionCategory-1"/>
		<code value="complaint"/>
		<display value="Complaint"/>
     </coding>
    </category>
    <code>
     <coding>
      <system value="http://snomed.info/sct"/>
      <code value="29857009"/>
      <display value="Chest pain"/>
     </coding>
    </code>
    <subject>
     <reference value="urn:uuid:c8225cc8-8026-466f-80f8-fc2832a4b9d5"/>
    </subject>
    <context>
     <reference value="urn:uuid:9a20cb92-354a-4015-82ec-ab0252efc5b9"/>
    </context>
    <onsetDateTime value="2015-02-12T09:00:00+00:00"/>
    <assertedDate value="2015-02-12"/>
    <asserter>
     <reference value="urn:uuid:c8225cc8-8026-466f-80f8-fc2832a4b9d5"/>
    </asserter>
   </Condition>
  </resource>
 </entry>
  <!--Condition example 2-->
 <entry>
  <fullUrl value="urn:uuid:80e53ab8-dcec-4b4d-aec2-eec9e00b5982"/>
  <resource>
   <Condition>
    <id value="80e53ab8-dcec-4b4d-aec2-eec9e00b5982"/>
    <meta>
     <profile value="https://fhir.nhs.uk/STU3/StructureDefinition/CareConnect-ITK-Condition-1"/>
    </meta>
    <identifier>
     <system value="https://tools.ietf.org/html/rfc4122"/>
     <value value="49e65c66-8c9f-4d54-a90d-a556e0e43f04"/>
    </identifier>
    <clinicalStatus value="active"/>
    <verificationStatus value="confirmed"/>
    <category>
     <coding>
      <system value="https://fhir.hl7.org.uk/STU3/CareConnect-ConditionCategory-1"/>
      <code value="diagnosis"/>
      <display value="Diagnosis"/>
     </coding>
    </category>
    <code>
     <coding>
   <system value="http://snomed.info/sct"/>
      <code value="425419005"/>
      <display value="ECG: inferior ischaemia"/>
     </coding>
    </code>
    <subject>
     <reference value="urn:uuid:c8225cc8-8026-466f-80f8-fc2832a4b9d5"/>
    </subject>
    <context>
     <reference value="urn:uuid:9a20cb92-354a-4015-82ec-ab0252efc5b9"/>
    </context>
    <onsetDateTime value="2015-02-12T12:00:00+00:00"/>
    <assertedDate value="2015-02-12"/>
    <asserter>
     <reference value="urn:uuid:369d88a8-9f6b-407f-8560-6ee9d7ccc8bb"/>
    </asserter>
   </Condition>
  </resource>
 </entry> 
 <!--Procedure Example 1-->
  <entry>
  <fullUrl value="urn:uuid:1a65a852-c14e-42ae-ae88-46ca1dc4d67f"/>
  <resource>
   <Procedure>
    <id value="1a65a852-c14e-42ae-ae88-46ca1dc4d67f"/>
    <meta>
     <profile value="https://fhir.nhs.uk/STU3/StructureDefinition/CareConnect-ITK-Procedure-1"/>
    </meta>
    <extension url="https://fhir.hl7.org.uk/STU3/StructureDefinition/Extension-CareConnect-DateRecorded-1">
     <valueDateTime value="2015-02-12"/>
    </extension>
    <identifier>
     <system value="https://tools.ietf.org/html/rfc4122"/>
     <value value="077287c1-28cc-4939-b3c4-5f3e97844ae0"/>
    </identifier>
    <status value="completed"/>
    <code>
     <coding>
      <system value="http://snomed.info/sct"/>
      <code value="46825001"/>
      <display value="Electrocardiographic monitoring"/>
     </coding>
    </code>
     <subject>
     <reference value="urn:uuid:c8225cc8-8026-466f-80f8-fc2832a4b9d5"/>
    </subject>
      <context>
     <reference value="urn:uuid:9a20cb92-354a-4015-82ec-ab0252efc5b9"/>
    </context>
    <performedDateTime value="2015-02-12T10:30:00+00:00"/>
     <performer>
     <actor>
    <reference value="urn:uuid:369d88a8-9f6b-407f-8560-6ee9d7ccc8bb"/>
</actor>
    </performer>
    <bodySite>
     <coding>
      <system value="http://snomed.info/sct"/>
      <code value="80891009"/>
      <display value="Heart structure"/>
     </coding>
    </bodySite>
   </Procedure>
  </resource>
 </entry>
	<!--Patient-Example-1-->
	<entry>
		<fullUrl value="urn:uuid:c8225cc8-8026-466f-80f8-fc2832a4b9d5"/>
		<resource>
			<Patient>
				<id value="c8225cc8-8026-466f-80f8-fc2832a4b9d5"/>
				<meta>
     <profile value="https://fhir.hl7.org.uk/STU3/StructureDefinition/CareConnect-Patient-1"/>
				</meta>
    <extension url="https://fhir.hl7.org.uk/STU3/StructureDefinition/Extension-CareConnect-EthnicCategory-1">
					<valueCodeableConcept>
						<coding>
       <system value="https://fhir.hl7.org.uk/STU3/CareConnect-EthnicCategory-1"/>
							<code value="A"/>
							<display value="British, Mixed British"/>
						</coding>
					</valueCodeableConcept>
				</extension>
    <extension url="https://fhir.hl7.org.uk/STU3/StructureDefinition/Extension-CareConnect-ReligiousAffiliation-1">
					<valueCodeableConcept>
						<coding>
							<system value="http://snomed.info/sct"/>
							<code value="80587008"/>
       <display value="Jehovah's Witness, follower of religion"/>
						</coding>
					</valueCodeableConcept>
				</extension>
    <extension url="http://hl7.org/fhir/StructureDefinition/patient-cadavericDonor">
     <valueBoolean value="false"/>
				</extension>
    <extension url="https://fhir.hl7.org.uk/STU3/StructureDefinition/Extension-CareConnect-ResidentialStatus-1">
					<valueCodeableConcept>
						<coding>
							<system value="https://fhir.hl7.org.uk/STU3/CareConnect-ResidentialStatus-1"/>
							<code value="H"/>
							<display value="UK Resident"/>
						</coding>
					</valueCodeableConcept>
				</extension>
    <extension url="https://fhir.hl7.org.uk/STU3/StructureDefinition/Extension-CareConnect-TreatmentCategory-1">
					<valueCodeableConcept>
						<coding>
       <system value="https://fhir.hl7.org.uk/STU3/CareConnect-TreatmentCategory-1"/>
							<code value="8"/>
							<display value="Not applicable"/>
						</coding>
					</valueCodeableConcept>
				</extension>
    <extension url="https://fhir.hl7.org.uk/STU3/StructureDefinition/Extension-CareConnect-NHSCommunication-1">
					<extension url="language">
						<valueCodeableConcept>
							<coding>
        <system value="https://fhir.hl7.org.uk/STU3/CareConnect-HumanLanguage-1"/>
								<code value="en"/>
								<display value="English"/>
							</coding>
						</valueCodeableConcept>
					</extension>
					<extension url="preferred">
						<valueBoolean value="true"/>
					</extension>
					<extension url="modeOfCommunication">
						<valueCodeableConcept>
							<coding>
        <system value="https://fhir.hl7.org.uk/STU3/CareConnect-LanguageAbilityMode-1"/>
								<code value="ESP"/>
								<display value="Expressed spoken"/>
							</coding>
						</valueCodeableConcept>
					</extension>
					<extension url="modeOfCommunication">
						<valueCodeableConcept>
							<coding>
        <system value="https://fhir.hl7.org.uk/STU3/CareConnect-LanguageAbilityMode-1"/>
								<code value="RWR"/>
								<display value="Received written"/>
							</coding>
						</valueCodeableConcept>
					</extension>
					<extension url="communicationProficiency">
						<valueCodeableConcept>
							<coding>
        <system value="https://fhir.hl7.org.uk/STU3/CareConnect-LanguageAbilityProficiency-1"/>
								<code value="E"/>
								<display value="Excellent"/>
							</coding>
						</valueCodeableConcept>
					</extension>
					<extension url="interpreterRequired">
						<valueBoolean value="false"/>
					</extension>
				</extension>
				<identifier>
     <extension url="https://fhir.hl7.org.uk/STU3/StructureDefinition/Extension-CareConnect-NHSNumberVerificationStatus-1">
						<valueCodeableConcept>
							<coding>
        <system value="https://fhir.hl7.org.uk/STU3/CareConnect-NHSNumberVerificationStatus-1"/>
								<code value="01"/>
								<display value="Number present and verified"/>
							</coding>
						</valueCodeableConcept>
					</extension>
					<system value="https://fhir.nhs.uk/Id/nhs-number"/>
     <value value="135 246 5790"/>
				</identifier>
				<active value="true"/>
				<name>
					<use value="usual"/>
					<family value="Smith"/>
					<given value="Richard"/>
					<prefix value="Mr"/>
				</name>
				<gender value="male"/>
				<birthDate value="1957-01-01"/>
				<address>
					<use value="home"/>
     <line value="21, Grove Street, Overtown"/>
     <city value="Leeds"/>
    <district value="West Yorkshire"/>
					<postalCode value="LS21 1PF"/>
				</address>
				<maritalStatus>
					<coding>
						<system value="http://hl7.org/fhir/v3/MaritalStatus"/>
						<code value="M"/>
						<display value="Married"/>
					</coding>
				</maritalStatus>
				<contact>
<relationship>
      <coding>
       <system value="http://hl7.org/fhir/v2/0131"/>
       <code value="N"/>
       <display value="Next-of-Kin"/>
      </coding>
     </relationship>
					<name>
						<use value="usual"/>
						<family value="Smith"/>
						<given value="Joy"/>
						<prefix value="Mrs"/>
					</name>
					<telecom>
						<system value="phone"/>
						<value value="0712345678"/>
						<use value="mobile"/>
					</telecom>
					<telecom>
						<system value="email"/>
						<value value="mrssmith@mymail.com"/>
					</telecom>
					<gender value="female"/>
				</contact>
				</Patient>
						</resource>
							</entry>
 <!--Related person Joy Smith -->
  <entry>
  <fullUrl value="urn:uuid:c6d67f90-7b84-4462-ab33-3777c56afd4a"/>
  <resource>
 <RelatedPerson>
 <id value="c6d67f90-7b84-4462-ab33-3777c56afd4a"/>
  <meta>
     <profile value="https://fhir.nhs.uk/STU3/StructureDefinition/ITK-RelatedPerson-1"/>
    </meta>
	 <patient>
     <reference value="urn:uuid:c8225cc8-8026-466f-80f8-fc2832a4b9d5"/>
    </patient>
    <relationship> 
    <coding> 
      <system value="http://hl7.org/fhir/v3/RoleCode"/> 
      <code value="WIFE"/> 
      <display value="wife"/>
    </coding> 
  </relationship> 
    <name> 
    <use value="official"/> 
    <family value="Smith"/> 
    <given value="Joy"/> 
    </name> 
  <telecom> 
    <system value="phone"/> 
    <value value="0712345678"/>
    <use value="mobile"/> 
  </telecom> 
  <gender value="female"/> 
</RelatedPerson>
  </resource>
 </entry>
	<!--Practitioner-Example-1-->
	<entry>
		<fullUrl value="urn:uuid:369d88a8-9f6b-407f-8560-6ee9d7ccc8bb"/>
		<resource>
			<Practitioner>
				<id value="369d88a8-9f6b-407f-8560-6ee9d7ccc8bb"/>
				<meta>
     <profile value="https://fhir.hl7.org.uk/STU3/StructureDefinition/CareConnect-Practitioner-1"/>
				</meta>
		<identifier>
  <system value="https://fhir.nhs.uk/Id/local-practitioner-identifier"/>
     <value value="6122477"/>
</identifier>
				<name>
     <family value="Rastall"/>
     <given value="Paul"/>
     <prefix value="Dr"/>
				</name>
				<telecom>
					<system value="phone"/>
					<value value="01136323200"/>
					<use value="work"/>
				</telecom>
				<address>
     <line value="Leeds General Infirmary"/>
					<line value="Great George Street"/>
					<city value="Leeds"/>
					<postalCode value="LS1 3EX"/>
				</address>
				</Practitioner>
		</resource>
	</entry>
	<!--Practitioner-Example-2-->
	<entry>
		<fullUrl value="urn:uuid:0105ae6a-a9a2-416f-b57e-e274ac9a48a2"/>
		<resource>
			<Practitioner>
				<id value="0105ae6a-a9a2-416f-b57e-e274ac9a48a2"/>
				<meta>
     <profile value="https://fhir.hl7.org.uk/STU3/StructureDefinition/CareConnect-Practitioner-1"/>
				</meta>
				<name>
     <family value="Jones"/>
					<given value="Angela"/>
					<prefix value="Mrs"/>
				</name>
				<telecom>
					<system value="phone"/>
					<value value="01136323200"/>
					<use value="work"/>
				</telecom>
			</Practitioner>
		</resource>
	</entry>
	<!--Practitioner-Example-3-->
	<entry>
		<fullUrl value="urn:uuid:bfeb7b70-ac1f-4a14-a3b9-5842a9e7b761"/>
		<resource>
			<Practitioner>
				<id value="bfeb7b70-ac1f-4a14-a3b9-5842a9e7b761"/>
				<meta>
     <profile value="https://fhir.hl7.org.uk/STU3/StructureDefinition/CareConnect-Practitioner-1"/>
				</meta>
				<identifier>
     <system value="https://fhir.nhs.uk/Id/sds-user-id"/>
					<value value="GP12345600"/>
				</identifier>
				<name>
					<family value="Lorenzo"/>
					<given value="John"/>
					<prefix value="Dr"/>
				</name>
				<telecom>
					<system value="phone"/>
					<value value="01634111222"/>
					<use value="work"/>
				</telecom>
				<telecom>
					<system value="email"/>
					<value value="John.Lorenzo@MMC.co.uk"/>
				</telecom>
				</Practitioner>
				</resource>
				</entry>
 <!--Practitioner-Example-4-->
 <entry>
  <fullUrl value="urn:uuid:d25fd1c6-2658-4db7-9af0-86c5f95e8ec9"/>
  <resource>
   <Practitioner>
    <id value="d25fd1c6-2658-4db7-9af0-86c5f95e8ec9"/>
    <meta>
     <profile value="https://fhir.hl7.org.uk/STU3/StructureDefinition/CareConnect-Practitioner-1"/>
    </meta>
    <name>
     <family value="Abacus"/>
     <prefix value="Mr"/>
    </name>
    <telecom>
     <system value="phone"/>
     <value value="01136323287"/>
     <use value="work"/>
    </telecom>
    <address>
     <line value="Leeds General Infirmary"/>
     <line value="Great George Street"/>
     <city value="Leeds"/>
     <postalCode value="LS1 3EX"/>
    </address>
   </Practitioner>
  </resource>
 </entry>
 <entry>
  <fullUrl value="urn:uuid:d9174bf6-0662-4ae1-b39a-f9fec278835d"/>
  <resource>
   <PractitionerRole>
    <id value="d9174bf6-0662-4ae1-b39a-f9fec278835d"/>
    <meta>
     <profile value="https://fhir.hl7.org.uk/STU3/StructureDefinition/CareConnect-PractitionerRole-1"/>
    </meta>
    <practitioner>
     <reference value="urn:uuid:369d88a8-9f6b-407f-8560-6ee9d7ccc8bb"/>
    </practitioner>
    <organization>
     <reference value="urn:uuid:120633ae-1a20-4e0e-b807-b78fb59679cc"/>
    </organization>
    <code>
     <coding>
      <system value="https://fhir.hl7.org.uk/STU3/CareConnect-SDSJobRoleName-1"/>
      <code value="R0110"/>
      <display value="Specialist Registrar"/>
     </coding>
    </code>
   </PractitionerRole>
  </resource>
 </entry>
 <entry>
  <fullUrl value="urn:uuid:8dcfc1f0-c44c-4436-a2fc-d8cd451d032a"/>
  <resource>
   <PractitionerRole>
    <id value="8dcfc1f0-c44c-4436-a2fc-d8cd451d032a"/>
    <meta>
     <profile value="https://fhir.hl7.org.uk/STU3/StructureDefinition/CareConnect-PractitionerRole-1"/>
    </meta>
    <practitioner>
     <reference value="urn:uuid:0105ae6a-a9a2-416f-b57e-e274ac9a48a2"/>
    </practitioner>
    <organization>
     <reference value="urn:uuid:8c7377c5-4d72-43c2-8ae3-40b5713eb04c"/>
    </organization>
    <code>
     <coding>
      <system value="https://fhir.hl7.org.uk/STU3/CareConnect-SDSJobRoleName-1"/>
      <code value="R0700"/>
      <display value="Community Nurse"/>
     </coding>
    </code>
   </PractitionerRole>
  </resource>
 </entry>
 <entry>
  <fullUrl value="urn:uuid:98828e88-b869-439d-8a64-10fd2cd7a4cd"/>
  <resource>
   <PractitionerRole>
    <id value="98828e88-b869-439d-8a64-10fd2cd7a4cd"/>
    <meta>
     <profile value="https://fhir.hl7.org.uk/STU3/StructureDefinition/CareConnect-PractitionerRole-1"/>
    </meta>
    <practitioner>
     <reference value="urn:uuid:bfeb7b70-ac1f-4a14-a3b9-5842a9e7b761"/>
    </practitioner>
    <organization>
     <reference value="urn:uuid:e4058bb2-bf1a-47a4-ab10-1471161380a1"/>
    </organization>
    <code>
     <coding>
      <system value="https://fhir.hl7.org.uk/STU3/CareConnect-SDSJobRoleName-1"/>
      <code value="R0260"/>
      <display value="General Medical Practitioner"/>
     </coding>
    </code>
   </PractitionerRole>
  </resource>
 </entry>
 <entry>
  <fullUrl value="urn:uuid:ebe83c65-857d-4c2c-a739-87dac121e3ec"/>
  <resource>
   <PractitionerRole>
    <id value="ebe83c65-857d-4c2c-a739-87dac121e3ec"/>
    <meta>
     <profile value="https://fhir.hl7.org.uk/STU3/StructureDefinition/CareConnect-PractitionerRole-1"/>
    </meta>
    <practitioner>
     <reference value="urn:uuid:d25fd1c6-2658-4db7-9af0-86c5f95e8ec9"/>
    </practitioner>
    <organization>
     <reference value="urn:uuid:120633ae-1a20-4e0e-b807-b78fb59679cc"/>
    </organization>
    <code>
     <coding>
      <system value="https://fhir.hl7.org.uk/STU3/CareConnect-SDSJobRoleName-1"/>
      <code value="R0050"/>
      <display value="Consultant"/>
     </coding>
    </code>
   </PractitionerRole>
  </resource>
 </entry>
	<!--Organization-Example-1-->
	<entry>
		<fullUrl value="urn:uuid:e4058bb2-bf1a-47a4-ab10-1471161380a1"/>
		<resource>
			<Organization>
				<id value="e4058bb2-bf1a-47a4-ab10-1471161380a1"/>
				<meta>
     <profile value="https://fhir.hl7.org.uk/STU3/StructureDefinition/CareConnect-Organization-1"/>
				</meta>
				<identifier>
					<system value="https://fhir.nhs.uk/Id/ods-organization-code"/>
					<value value="GP123456"/>
				</identifier>
				<type>
					<coding>
						<system value="http://hl7.org/fhir/organization-type"/>
						<code value="prov"/>
						<display value="Healthcare Provider"/>
					</coding>
				</type>
				<name value="MGP Medical Centre"/>
				<telecom>
					<system value="phone"/>
					<value value="01134111223"/>
					<use value="work"/>
				</telecom>
				<telecom>
					<system value="email"/>
					<value value="Admin@MMC.co.uk"/>
				</telecom>
				<address>
					<use value="work"/>
					<line value="1 MGP House"/>
					<line value="Overtown"/>
					<line value="Leeds"/>
					<line value="LS21 7PA"/>
				</address>
			</Organization>
		</resource>
	</entry>
		<!--Organization-Example-2-->
		<entry>
		<fullUrl value="urn:uuid:120633ae-1a20-4e0e-b807-b78fb59679cc"/>
		<resource>
			<Organization>
				<id value="120633ae-1a20-4e0e-b807-b78fb59679cc"/>
				<meta>
     <profile value="https://fhir.hl7.org.uk/STU3/StructureDefinition/CareConnect-Organization-1"/>
				</meta>
				<identifier>
					<system value="https://fhir.nhs.uk/Id/ods-organization-code"/>
					<value value="RR8"/>
				</identifier>
				<type>
					<coding>
						<system value="http://hl7.org/fhir/organization-type"/>
						<code value="prov"/>
						<display value="Healthcare Provider"/>
					</coding>
				</type>
				<name value="Leeds Teaching Hospitals NHS Trust"/>
				<telecom>
					<system value="phone"/>
					<value value="01132433144"/>
					<use value="work"/>
				</telecom>
				<address>
					<line value="Leeds Teaching Hospitals NHS Trust"/>
					<line value="St James's University Hospital"/>
					<line value="Beckett Street"/>
					<city value="Leeds"/>
					<postalCode value="LS9 7TF"/>
				</address>
			</Organization>
		</resource>
	</entry>
	<!--Organization-Example-3-->
	<entry>
		<fullUrl value="urn:uuid:8c7377c5-4d72-43c2-8ae3-40b5713eb04c"/>
		<resource>
			<Organization>
				<id value="8c7377c5-4d72-43c2-8ae3-40b5713eb04c"/>
				<meta>
				  <profile value="https://fhir.hl7.org.uk/STU3/StructureDefinition/CareConnect-Organization-1"/>
				</meta>
				<identifier>
					<system value="https://fhir.nhs.uk/Id/ods-organization-code"/>
					<value value="RY6"/>
				</identifier>
				<type>
					<coding>
						<system value="http://hl7.org/fhir/organization-type"/>
						<code value="prov"/>
						<display value="Healthcare Provider"/>
					</coding>
				</type>
				<name value="Leeds Community Healthcare NHS Trust"/>
				<telecom>
					<system value="phone"/>
					<value value="01136323200"/>
					<use value="work"/>
				</telecom>
				<address>
					<line value="Leeds Community Healthcare NHS Trust"/>
					<line value="First Floor, Stockdale House"/>
					<line value="Headingley Office Park"/>
					<line value="Victoria Road"/>
					<city value="Leeds"/>
					<postalCode value="LS6 1PF"/>
				</address>
			</Organization>
		</resource>
	</entry>
		<!--Location-Example-1-->
	<entry>
		<fullUrl value="urn:uuid:64e97568-a879-4ebc-b506-a360fca0c286"/>
		<resource>
			<Location>
				<id value="64e97568-a879-4ebc-b506-a360fca0c286"/>
			 <meta>
     <profile value="https://fhir.hl7.org.uk/STU3/StructureDefinition/CareConnect-Location-1"/>
    </meta>
    	<identifier>
					<system value="https://fhir.nhs.uk/Id/ods-site-code"/>
					<value value="RR8A2"/>
				</identifier>
 	<name value="Accident and Emergency SJUH"/>
 			<telecom>
					<system value="phone"/>
					<value value="01132433146"/>
					<use value="work"/>
				</telecom>
				<address>
				<line value="St James's University Hospital"/>
					<line value="Beckett Street"/>
					<city value="Leeds"/>
					<postalCode value="LS9 7TF"/>
				</address>
   <managingOrganization>
     <reference value="urn:uuid:120633ae-1a20-4e0e-b807-b78fb59679cc"/>
    </managingOrganization>
			</Location>
		</resource>
	</entry>
	<!--Location-Example-2-->
	<entry>
		<fullUrl value="urn:uuid:50ed9220-2a96-47ba-9c28-d4a1e3ecd748"/>
		<resource>
			<Location>
				<id value="50ed9220-2a96-47ba-9c28-d4a1e3ecd748"/>
			 <meta>
     <profile value="https://fhir.hl7.org.uk/STU3/StructureDefinition/CareConnect-Location-1"/>
    </meta>
    <name value="Cramer Ward"/>
    <type>
     <coding>
      <system value="http://hl7.org/fhir/v3/RoleCode"/>
      <code value="CCU"/>
      <display value="Coronary care unit"/>
     </coding>
    </type>
    <physicalType>
     <coding>
      <system value="http://hl7.org/fhir/location-physical-type"/>
      <code value="wa"/>
      <display value="Ward"/>
     </coding>
    </physicalType>
    <managingOrganization>
     <reference value="urn:uuid:120633ae-1a20-4e0e-b807-b78fb59679cc"/>
    </managingOrganization>
			</Location>
		</resource>
	</entry>
</Bundle>
