<!--This xml example is for illustrative purposes only and has not been clinically verified-->
<Bundle xmlns="http://hl7.org/fhir" xmlns:xsi="http://www.w3.org/2001/XMLSchema-instance" xsi:schemaLocation="http://hl7.org/fhir file:///C:/GitHubRepo/ITK3-FHIR-eDischarge/schemas/bundle.xsd">
 <id value="6191cc21-cb11-4d99-8cb2-2afe1c7e9d2f"/>
 <meta>
  <profile value="https://fhir.nhs.uk/STU3/StructureDefinition/ITK-Document-Bundle-1"/>
 </meta>
 <identifier>
  <system value="https://tools.ietf.org/html/rfc4122"/>
  <value value="8added16-7324-4b62-acea-dbc2c88fb3cd"/>
 </identifier>
 <type value="document"/>
 <entry>
  <fullUrl value="urn:uuid:c8572d03-8669-4689-b713-ba68753a49d6"/>
  <resource>
   <!--A resource carrying a set of healthcare-related information about the patient-->
   <Composition>
    <id value="c8572d03-8669-4689-b713-ba68753a49d6"/>
    <meta>
     <profile value="https://fhir.nhs.uk/STU3/StructureDefinition/ITK-MH-Composition-1"/>
    </meta>
    <!--Extension carrying reference(s) to the document recipients-->
    <extension url="https://fhir.nhs.uk/STU3/StructureDefinition/Extension-ITK-InformationRecipient-1">
     <valueReference>
      <reference value="urn:uuid:4d6804c1-6e9a-4ddd-bf4d-bec9f6f13de7"/>
     </valueReference>
    </extension>
    <extension url="https://fhir.nhs.uk/STU3/StructureDefinition/Extension-ITK-InformationRecipient-1">
     <valueReference>
      <reference value="urn:uuid:3572fd25-27ad-44d4-80a7-8e23c730e2f2"/>
     </valueReference>
    </extension>
    <!-- Extension to carry details of the Correspondence Care Setting Type. -->
    <extension url="https://fhir.nhs.uk/STU3/StructureDefinition/Extension-ITK-CareSettingType-1">
     <valueCodeableConcept>
      <coding>
       <system value="http://snomed.info/sct"/>
       <code value="892811000000109"/>
       <display value="Adult mental health service"/>
      </coding>
     </valueCodeableConcept>
    </extension>
    <identifier>
     <value value="53cb32ab-a858-44d6-9bef-34c7fc4ee4ec"/>
    </identifier>
    <!--The workflow/clinical status of this composition. The status is a marker for the clinical standing of the document.-->
    <status value="final"/>
    <type>
     <!--Discharge Summary document type-->
     <coding>
      <system value="http://snomed.info/sct"/>
      <code value="373942005"/>
      <display value="Discharge summary"/>
     </coding>
    </type>
    <!--Reference to the patient subject of the Composition-->
    <subject>
     <reference value="urn:uuid:1c5a26fd-b317-4fc0-8e0d-7ed8c75d34d8"/>
    </subject>
    <!--Reference to the clinical encounter or type of care this documentation is associated with.-->
    <encounter>
     <reference value="urn:uuid:c37a3a1a-0895-44c4-a79a-f7b7bb425e47"/>
    </encounter>
    <!--The composition editing time, when the composition was last logically changed by the author.-->
    <date value="2015-03-05T12:00:00+00:00"/>
    <!--Identifies who is responsible for the information in the composition, not necessarily who typed it in-->
    <author>
     <reference value="urn:uuid:ba20623e-6d70-420e-bbf9-e4b6ac0f50b3"/>
    </author>
    <title value="Discharge summary"/>
    <!--The code specifying the level of confidentiality of the Composition.-->
    <confidentiality value="V"/>
    <!--Identifies the organization responsible for ongoing maintenance of and access to the composition/document information.-->
    <custodian>
     <reference value="urn:uuid:35e7fc14-f7cb-4b6d-bb41-2ad7f45c501c"/>
    </custodian>
    <section>
     <!--The label for this particular section. This will be part of the rendered content for the document, and is often used to build a table of contents.-->
     <title value="Admission details"/>
     <!--A SNOMED CT code identifying the kind of content contained within the section-->
     <code>
      <coding>
       <system value="http://snomed.info/sct"/>
       <code value="886781000000108"/>
       <display value="Admission details"/>
      </coding>
     </code>
     <!--A human-readable narrative that contains the attested content of the section-->
     <text>
      <status value="generated"/>
      <div xmlns="http://www.w3.org/1999/xhtml">
       <table width="100%">
        <tbody>
         <tr>
          <th>Admission method</th>
          <td>Other emergency admission</td>
         </tr>
         <tr>
          <th>Date of admission</th>
          <td>12-Feb-2015</td>
         </tr>
        </tbody>
       </table>
      </div>
     </text>
     <!--Reference to the encounter resource where information for this section can be found-->
     <entry>
      <reference value="urn:uuid:c37a3a1a-0895-44c4-a79a-f7b7bb425e47"/>
     </entry>
    </section>
    <section>
     <title value="Allergies and adverse reactions"/>
     <code>
      <coding>
       <system value="http://snomed.info/sct"/>
       <code value="886921000000105"/>
       <display value="Allergies and adverse reactions"/>
      </coding>
     </code>
     <text>
      <status value="generated"/>
      <div xmlns="http://www.w3.org/1999/xhtml">
       <table width="100%">
        <tbody>
         <tr>
          <th>Allergy/adverse reaction</th>
          <td>No known allergies or adverse reactions</td>
         </tr>
        </tbody>
       </table>
      </div>
     </text>
     <orderedBy>
      <coding>
       <system value="http://hl7.org/fhir/list-order"/>
       <code value="system"/>
       <display value="Sorted by System"/>
      </coding>
     </orderedBy>
     <!--Reference to Allergies List as the source of information for this section-->
     <entry>
      <reference value="urn:uuid:627bd799-7a86-40bd-a931-d8526b412fa5"/>
     </entry>
    </section>
    <section>
     <title value="Clinical summary"/>
     <code>
      <coding>
       <system value="http://snomed.info/sct"/>
       <code value="887181000000106"/>
       <display value="Clinical summary"/>
      </coding>
     </code>
     <text>
      <status value="generated"/>
      <div xmlns="http://www.w3.org/1999/xhtml">
       <table width="100%">
        <tbody>
         <tr>
          <th>Clinical Summary</th>
         </tr>
         <tr>
          <td>
           <p>Brought to the hospital A+E department by the police as had been involved in a disturbance in a shopping centre, assaulting another customer.</p>
           <p>Agitated on interview and denying any thoughts of self-harm.</p>
           <p>Denied any drug misuse.</p>
           <p>Tested negative for banned substances following admission.</p>
           <p>Diagnosis of Paranoid Schizophrenia, frequently uncompliant with treatment.</p>
           <p>Well known to local mental health services.</p>
           <p>Due to poor adherence with treatment she was discharged from hospital subject to a Community Treatment Order and is, 
therefore, subject to recall to hospital if she does not adhere to treatment.</p>
          </td>
         </tr>
        </tbody>
       </table>
      </div>
     </text>
    </section>
    <section>
     <title value="Diagnoses"/>
     <code>
      <coding>
       <system value="http://snomed.info/sct"/>
       <code value="887161000000102"/>
       <display value="Diagnoses"/>
      </coding>
     </code>
     <text>
      <status value="generated"/>
      <div xmlns="http://www.w3.org/1999/xhtml">
       <table width="100%">
        <tbody>
         <tr>
          <th>Diagnosis/symptom</th>
          <td>Paranoid Schizophrenia</td>
         </tr>
        </tbody>
       </table>
      </div>
     </text>
     <orderedBy>
      <coding>
       <system value="http://hl7.org/fhir/list-order"/>
       <code value="system"/>
       <display value="Sorted by System"/>
      </coding>
     </orderedBy>
     <entry>
      <reference value="urn:uuid:ebe24eb4-72ff-4300-ac05-dbc69b73ce14"/>
     </entry>
    </section>
    <section>
     <title value="Discharge details"/>
     <code>
      <coding>
       <system value="http://snomed.info/sct"/>
       <code value="886811000000106"/>
       <display value="Discharge details"/>
      </coding>
     </code>
     <text>
      <status value="generated"/>
      <div xmlns="http://www.w3.org/1999/xhtml">
       <table width="100%">
        <tbody>
         <tr>
          <th>Discharging consultant</th>
          <td>Dr Scott</td>
         </tr>
         <tr>
          <th>Date of discharge</th>
          <td>05-Mar-2015</td>
         </tr>
         <tr>
          <th>Time of discharge</th>
          <td>12:00</td>
         </tr>
         <tr>
          <th>Legal Status on Discharge</th>
          <td>Formal CTO</td>
         </tr>
         <tr>
          <th>Discharge method</th>
          <td>Patient discharged on clinical advice or with clinical consent</td>
         </tr>
         <tr>
          <th>Discharge destination</th>
          <td>Discharge address: 27, Grove Street, Leeds, LS21 4GG</td>
         </tr>
        </tbody>
       </table>
      </div>
     </text>
     <orderedBy>
      <coding>
       <system value="http://hl7.org/fhir/list-order"/>
       <code value="system"/>
       <display value="Sorted by System"/>
      </coding>
     </orderedBy>
     <!--Reference to the Encounter entry as the source of information for this section-->
     <entry>
      <reference value="urn:uuid:c37a3a1a-0895-44c4-a79a-f7b7bb425e47"/>
     </entry>
    </section>
    <section>
     <title value="Investigation results"/>
     <code>
      <coding>
       <system value="http://snomed.info/sct"/>
       <code value="1082101000000102"/>
       <display value="Investigation results"/>
      </coding>
     </code>
     <text>
      <status value="generated"/>
      <div xmlns="http://www.w3.org/1999/xhtml">
       <table>
        <tbody>
         <tr>
          <th>Investigation results</th>
         </tr>
         <tr>
          <td>
           <pre>
Full Blood Count      
      
Test						Value			Units			Reference Range
White Cell Count				11.1			x10*9/L			3.5 - 10.0
Red Cell Count					5.0			x10*12/L		4.25 - 5.75 
Haemoglobin					150			g/L			13.0 - 17.0
Haematocrit					0.230						0.400 - 0.500
Mean Cell Volume				90			fL			84 - 98
Mean Cell Hb					33.0			pg			27.5 - 32.0
Mean Cell Hb Con				34.0			pg			31.0 - 35.0
RDW						12.0			%			&lt; 14.5
Platelet Count					300			x10*9/L			150 - 400

Machine Differential      
      
Test                  				Value			Units        		Reference Range
Neutrophils					7.0			x10*9/L			1.7 - 7.5
Lymphocytes					3.5			x10*9/L			1.0 - 3.5   
Monocytes					0.3			x10*9/L			&lt; 0.6  
Eosinophils					0.4			x10*9/L			&lt; 0.4  
Basophils					0.1			x10*9/L			&lt; 0.1 
LUCs						0.2			x10*9/L			&lt; 0.4 
      </pre>
          </td>
         </tr>
        </tbody>
       </table>
      </div>
     </text>
    </section>
    <section>
     <title value="Legal information"/>
     <code>
      <coding>
       <system value="http://snomed.info/sct"/>
       <code value="886961000000102"/>
       <display value="Legal information"/>
      </coding>
     </code>
     <text>
      <status value="generated"/>
      <div xmlns="http://www.w3.org/1999/xhtml">
       <table width="100%">
        <tbody>
         <tr>
          <th>Consent for treatment/intervention record</th>
          <td>Yes</td>
         </tr>
         <tr>
          <th>Consent for information sharing</th>
          <td>Yes</td>
         </tr>
         <tr>
          <th>Mental Health Act or equivalent status</th>
          <td>Patient subject to a Community Treatment Order.</td>
         </tr>
        </tbody>
       </table>
      </div>
     </text>
    </section>
    <section>
     <title value="Medications and medical devices"/>
     <code>
      <coding>
       <system value="http://snomed.info/sct"/>
       <code value="933361000000108"/>
       <display value="Medications and medical devices"/>
      </coding>
     </code>
     <text>
      <status value="generated"/>
      <div xmlns="http://www.w3.org/1999/xhtml">
       <table width="100%">
        <tbody>
         <tr>
          <th>Medication name</th>
          <td>OLANZAPINE</td>
         </tr>
         <tr>
          <th>Dose amount</th>
          <td>10mg</td>
         </tr>
         <tr>
          <th>Dose timing</th>
          <td>OD</td>
         </tr>
         <tr>
          <th>Route</th>
          <td>oral</td>
         </tr>
            <tr>
          <th>Medication change</th>
          <td>Status: Continued</td>
         </tr>
        </tbody>
        <tbody>
         <tr>
          <th>Medication name</th>
          <td>DIAZEPAM</td>
         </tr>
         <tr>
          <th>Dose</th>
          <td>2mg</td>
         </tr>
         <tr>
          <th>Dose timing</th>
          <td>TDS</td>
         </tr>
         <tr>
          <th>Route</th>
          <td>oral</td>
         </tr>
          <tr>
          <th>Medication change</th>
          <td>Status: Added</td>
         </tr>
         <tr>
          <th>Medication recommendations</th>
          <td>For 7 days only</td>
         </tr>
        </tbody>
       </table>
      </div>
     </text>
     <orderedBy>
      <coding>
       <system value="http://hl7.org/fhir/list-order"/>
       <code value="system"/>
       <display value="Sorted by System"/>
      </coding>
     </orderedBy>
     <entry>
      <reference value="urn:uuid:9b1cf5d4-2445-4c99-994a-b75b1a13a4f3"/>
     </entry>
    </section>
    <section>
     <title value="Participation in research"/>
     <code>
      <coding>
       <system value="http://snomed.info/sct"/>
       <code value="886751000000102"/>
       <display value="Participation in research"/>
      </coding>
     </code>
     <text>
      <status value="generated"/>
      <div xmlns="http://www.w3.org/1999/xhtml">
       <table width="100%">
        <tbody>
         <tr>
          <th>Participation in research</th>
          <td>Consent not given</td>
         </tr>
        </tbody>
       </table>
      </div>
     </text>
    </section>
    <section>
     <title value="Patient and carer concerns, expectations and wishes"/>
     <code>
      <coding>
       <system value="http://snomed.info/sct"/>
       <code value="1052941000000107"/>
       <display value="Patient and carer concerns, expectations and wishes"/>
      </coding>
     </code>
     <text>
      <status value="generated"/>
      <div xmlns="http://www.w3.org/1999/xhtml">
       <table width="100%">
        <tbody>
         <tr>
          <th>Patient and carer concerns, expectations and wishes</th>
          <td>Patient stated "I want to stay with my daughter till I recover"</td>
         </tr>
        </tbody>
       </table>
      </div>
     </text>
    </section>
    <section>
     <title value="Person completing record"/>
     <code>
      <coding>
       <system value="http://snomed.info/sct"/>
       <code value="887231000000104"/>
       <display value="Person completing record"/>
      </coding>
     </code>
     <text>
      <status value="generated"/>
      <div xmlns="http://www.w3.org/1999/xhtml">
       <table width="100%">
        <tbody>
         <tr>
          <th>Name</th>
          <td>Dr M Scott</td>
         </tr>
         <tr>
          <th>Professional identifier</th>
          <td>9222477</td>
         </tr>
         <tr>
          <th>Role</th>
          <td>Specialist Registrar</td>
         </tr>
         <tr>
          <th>Date and time completed</th>
          <td>05-Mar-2015 12:00</td>
         </tr>
         <tr>
          <th>Contact details</th>
          <td>Phone: 0113 111222</td>
         </tr>
        </tbody>
       </table>
      </div>
     </text>
    </section>
    <section>
     <title value="Plan and requested actions"/>
     <code>
      <coding>
       <system value="http://snomed.info/sct"/>
       <code value="887201000000105"/>
       <display value="Plan and requested actions"/>
      </coding>
     </code>
     <text>
      <status value="generated"/>
      <div xmlns="http://www.w3.org/1999/xhtml">
       <table width="100%">
        <tbody>
         <tr>
          <th>Actions</th>
          <td><p>Physical attention will be needed from Primary Care due to the fact she is on an atypical antipsychotic and 
will need weight and general health monitoring by the Community Consultant/Team:Dr Gillingham Leeds Recovery and Support Team. </p><p>Status: Requested</p>
      <p>CPA Status and 117 Aftercare:Follow up will be made by the Leeds Recovery and Support team. 
7 Day Follow up will be done by the community team.</p><p>Status: Requested</p></td></tr>       
        </tbody>
       </table>
      </div>
     </text>
    </section>
    <section>
     <title value="Referrer details"/>
     <code>
      <coding>
       <system value="http://snomed.info/sct"/>
       <code value="1052891000000108"/>
       <display value="Referrer details"/>
      </coding>
     </code>
     <text>
      <status value="generated"/>
      <div xmlns="http://www.w3.org/1999/xhtml">
       <table width="100%">
        <tbody>
         <tr>
          <th>Referrer details</th>
          <td>Referred by the police</td>
         </tr>
        </tbody>
       </table>
      </div>
     </text>
    </section>
    <section>
     <title value="Safety alerts"/>
     <code>
      <coding>
       <system value="http://snomed.info/sct"/>
       <code value="886931000000107"/>
       <display value="Safety alerts"/>
      </coding>
     </code>
     <text>
      <status value="generated"/>
      <div xmlns="http://www.w3.org/1999/xhtml">
       <table width="100%">
        <tbody>
         <tr>
          <th>Risks to others</th>
          <td>Can be abusive and agitated when non compliant with treatment</td>
         </tr>
        </tbody>
       </table>
      </div>
     </text>
    </section>
    <section>
     <title value="Social context"/>
     <code>
      <coding>
       <system value="http://snomed.info/sct"/>
       <code value="887051000000101"/>
       <display value="Social context"/>
      </coding>
     </code>
     <text>
      <status value="generated"/>
      <div xmlns="http://www.w3.org/1999/xhtml">
       <table width="100%">
        <tbody>
         <tr>
          <th>Household composition</th>
          <td>Lives alone</td>
         </tr>
         <tr>
          <th>Alcohol intake</th>
          <td>50 units/week</td>
         </tr>
         <tr>
          <th>Drug/Substance use</th>
          <td>Frequently uncompliant with treatment and during these times often misuses alcohol and cannabis</td>
         </tr>
        </tbody>
       </table>
      </div>
     </text>
    </section>
   </Composition>
  </resource>
 </entry>
 <entry>
  <fullUrl value="urn:uuid:c37a3a1a-0895-44c4-a79a-f7b7bb425e47"/>
  <resource>
   <!--Encounter resource providing context for the discharge-->
   <Encounter>
    <id value="c37a3a1a-0895-44c4-a79a-f7b7bb425e47"/>
    <meta>
     <profile value="https://fhir.nhs.uk/STU3/StructureDefinition/CareConnect-ITK-Encounter-1"/>
    </meta>
    <identifier>
     <system value="https://tools.ietf.org/html/rfc4122"/>
     <value value="e7fc263c-2e22-4dd1-9f5e-57e0e005128f"/>
    </identifier>
    <status value="finished"/>
    <class>
     <system value="http://hl7.org/fhir/v3-ActEncounterCode"/>
     <code value="IMP"/>
     <display value="inpatient encounter"/>
    </class>
    <!--Specific type of encounter-->
    <type>
     <coding>
      <system value="http://snomed.info/sct"/>
      <code value="24882007"/>
      <display value="Medical consultation on hospital inpatient"/>
     </coding>
    </type>
    <!--Reference to the patient as the subject of the Encounter-->
    <subject>
     <reference value="urn:uuid:1c5a26fd-b317-4fc0-8e0d-7ed8c75d34d8"/>
    </subject>
    <!--	List of participant(s) involved in the encounter-->
    <participant>
     <type>
      <coding>
       <system value="http://hl7.org/fhir/v3/ParticipationType"/>
       <code value="ATND"/>
       <display value="attender"/>
      </coding>
     </type>
     <!--Reference to the person (Practitioner) involved in the encounter other than the patient, in this case the overseeing clinician, Dr. Daniel Beck -->
     <individual>
      <reference value="urn:uuid:1858f474-c235-4e73-ab8d-a0a2236613d6"/>
     </individual>
    </participant>
    <participant>
     <type>
      <coding>
       <system value="http://hl7.org/fhir/v3/ParticipationType"/>
       <code value="DIS"/>
       <display value="discharger"/>
      </coding>
     </type>
     <!--Reference to the discharging clinician, in this case Dr. Scott -->
     <individual>
      <reference value="urn:uuid:ba20623e-6d70-420e-bbf9-e4b6ac0f50b3"/>
     </individual>
    </participant>
    <!--	The start and end time of the encounter-->
    <period>
     <start value="2015-02-12T12:00:00+00:00"/>
     <end value="2015-03-05T12:00:00+00:00"/>
    </period>
    <reason>
     <coding>
      <system value="http://snomed.info/sct"/>
      <code value="18117002"/>
      <display value="Paranoid character"/>
     </coding>
    </reason>
    <diagnosis>
     <condition>
      <!--Reason the encounter takes place ( reference to the condition resource)-->
      <reference value="urn:uuid:ebe24eb4-72ff-4300-ac05-dbc69b73ce14"/>
     </condition>
     <!--Role that this diagnosis has within the encounter-->
     <role>
      <coding>
       <system value="http://hl7.org/fhir/diagnosis-role"/>
       <code value="DD"/>
       <display value="Discharge diagnosis"/>
      </coding>
     </role>
    </diagnosis>
    <hospitalization>
     <admitSource>
      <coding>
       <system value="http://hl7.org/fhir/admit-source"/>
       <code value="emd"/>
       <display value="From accident/emergency department"/>
      </coding>
     </admitSource>
     <dischargeDisposition>
      <coding>
       <system value="http://hl7.org/fhir/discharge-disposition"/>
       <code value="oth"/>
       <display value="Other"/>
      </coding>
      <text value="Daughter's residence"/>
     </dischargeDisposition>
    </hospitalization>
    <!--List of locations where the patient has been-->
    <location>
     <!--Location the encounter takes place-->
     <location>
      <reference value="urn:uuid:d19c145a-9fa4-401d-89cc-4024c1a9b74a"/>
     </location>
    </location>
   </Encounter>
  </resource>
 </entry>
 <entry>
  <fullUrl value="urn:uuid:9b1cf5d4-2445-4c99-994a-b75b1a13a4f3"/>
  <resource>
   <List>
    <id value="9b1cf5d4-2445-4c99-994a-b75b1a13a4f3"/>
    <meta>
     <profile value="https://fhir.nhs.uk/STU3/StructureDefinition/ITK-Medication-List-1"/>
    </meta>
    <identifier>
     <system value="https://tools.ietf.org/html/rfc4122"/>
     <value value="09b9a4ff-22d7-4ad4-80d0-a608474325d5"/>
    </identifier>
    <status value="current"/>
    <mode value="snapshot"/>
    <code>
     <coding>
      <system value="http://hl7.org/fhir/list-example-use-codes"/>
      <code value="medications"/>
      <display value="Medication List"/>
     </coding>
    </code>
    <subject>
     <reference value="urn:uuid:1c5a26fd-b317-4fc0-8e0d-7ed8c75d34d8"/>
    </subject>
    <encounter>
     <reference value="urn:uuid:c37a3a1a-0895-44c4-a79a-f7b7bb425e47"/>
    </encounter>
    <entry>
     <flag>
      <coding>
       <system value="https://fhir.nhs.uk/STU3/ITK-PatientMedicationChangeType-1"/>
       <code value="01"/>
       <display value="Continued"/>
      </coding>
     </flag>
     <item>
      <reference value="urn:uuid:8006a0b5-4081-40f0-8b00-ccc22489ce24"/>
     </item>
    </entry>
    <entry>
     <flag>
      <coding>
       <system value="https://fhir.nhs.uk/STU3/ITK-PatientMedicationChangeType-1"/>
       <code value="09"/>
       <display value="Active"/>
      </coding>
     </flag>
     <item>
      <reference value="urn:uuid:467c0506-a1eb-4724-acf7-eef207d84ae3"/>
     </item>
    </entry>
   </List>
  </resource>
 </entry>
 <entry>
  <fullUrl value="urn:uuid:8006a0b5-4081-40f0-8b00-ccc22489ce24"/>
  <resource>
   <MedicationStatement>
    <id value="8006a0b5-4081-40f0-8b00-ccc22489ce24"/>
    <meta>
     <profile value="https://fhir.nhs.uk/STU3/StructureDefinition/CareConnect-ITK-MedicationStatement-1"/>
    </meta>
    <identifier>
     <system value="https://tools.ietf.org/html/rfc4122"/>
     <value value="609d5288-94d2-4c51-a23a-d52f7c9d34e5"/>
    </identifier>
    <status value="active"/>
    <medicationCodeableConcept>
     <coding>
      <system value="http://snomed.info/sct"/>
      <code value="321614001"/>
      <display value="Olanzapine 10mg tablet"/>
     </coding>
    </medicationCodeableConcept>
    <!--Patient subject of the Medication statement-->
    <subject>
     <reference value="urn:uuid:1c5a26fd-b317-4fc0-8e0d-7ed8c75d34d8"/>
    </subject>
    <taken value="y"/>
    <dosage>
     <text value="Take one tablet daily"/>
     <timing>
      <repeat>
       <frequency value="1"/>
       <period value="1"/>
       <periodUnit value="d"/>
      </repeat>
     </timing>
     <asNeededBoolean value="false"/>
     <route>
      <coding>
       <system value="http://snomed.info/sct"/>
       <code value="260548002"/>
       <display value="Oral"/>
      </coding>
     </route>
     <doseQuantity>
      <value value="10"/>
      <unit value="mg"/>
      <system value="http://unitsofmeasure.org"/>
      <code value="mg"/>
     </doseQuantity>
     <maxDosePerPeriod>
      <numerator>
       <value value="1"/>
       <unit value="Tablet"/>
       <system value="http://snomed.info/sct"/>
       <code value="385055001"/>
      </numerator>
      <denominator>
       <value value="1"/>
       <system value="http://unitsofmeasure.org"/>
       <code value="d"/>
      </denominator>
     </maxDosePerPeriod>
    </dosage>
   </MedicationStatement>
  </resource>
 </entry>
 <entry>
  <fullUrl value="urn:uuid:467c0506-a1eb-4724-acf7-eef207d84ae3"/>
  <resource>
   <MedicationStatement>
    <id value="467c0506-a1eb-4724-acf7-eef207d84ae3"/>
    <meta>
     <profile value="https://fhir.nhs.uk/STU3/StructureDefinition/CareConnect-ITK-MedicationStatement-1"/>
    </meta>
    <identifier>
     <system value="https://tools.ietf.org/html/rfc4122"/>
     <value value="4aa3342b-9b27-4c2e-ac7b-23dcfcfb7a0d"/>
    </identifier>
    <status value="active"/>
    <medicationCodeableConcept>
     <coding>
      <system value="http://snomed.info/sct"/>
      <code value="321196004"/>
      <display value="Diazepam 2mg tablet"/>
     </coding>
    </medicationCodeableConcept>
    <subject>
     <reference value="urn:uuid:1c5a26fd-b317-4fc0-8e0d-7ed8c75d34d8"/>
    </subject>
    <taken value="y"/>
    <dosage>
     <text value="Take three tablets daily for 7 days"/>
     <timing>
      <repeat>
      <boundsPeriod>
<start value="2015-03-05"/>
<end value="2015-03-11"/>
</boundsPeriod>
       <frequency value="3"/>
       <period value="1"/>
       <periodUnit value="d"/>
      </repeat>
     </timing>
     <asNeededBoolean value="false"/>
     <route>
      <coding>
       <system value="http://snomed.info/sct"/>
       <code value="260548002"/>
       <display value="Oral"/>
      </coding>
     </route>
     <doseQuantity>
      <value value="2"/>
      <unit value="mg"/>
      <system value="http://unitsofmeasure.org"/>
      <code value="mg"/>
     </doseQuantity>
     <maxDosePerPeriod>
      <numerator>
       <value value="3"/>
       <unit value="Tablet"/>
       <system value="http://snomed.info/sct"/>
       <code value="385055001"/>
      </numerator>
      <denominator>
       <value value="1"/>
       <system value="http://unitsofmeasure.org"/>
       <code value="d"/>
      </denominator>
     </maxDosePerPeriod>
    </dosage>
   </MedicationStatement>
  </resource>
 </entry>
 <entry>
  <fullUrl value="urn:uuid:627bd799-7a86-40bd-a931-d8526b412fa5"/>
  <resource>
   <List>
    <id value="627bd799-7a86-40bd-a931-d8526b412fa5"/>
    <meta>
     <profile value="https://fhir.nhs.uk/STU3/StructureDefinition/ITK-Allergies-List-1"/>
    </meta>
    <identifier>
     <system value="https://tools.ietf.org/html/rfc4122"/>
     <value value="9ca85d9b-c54c-4134-8fcc-3552796c7340"/>
    </identifier>
    <status value="current"/>
    <mode value="snapshot"/>
    <code>
     <coding>
      <system value="http://hl7.org/fhir/list-example-use-codes"/>
      <code value="allergies"/>
      <display value="Allergies"/>
     </coding>
    </code>
    <subject>
     <reference value="urn:uuid:1c5a26fd-b317-4fc0-8e0d-7ed8c75d34d8"/>
    </subject>
    <encounter>
     <reference value="urn:uuid:c37a3a1a-0895-44c4-a79a-f7b7bb425e47"/>
    </encounter>
    <emptyReason>
     <coding>
      <system value="http://hl7.org/fhir/list-empty-reason"/>
      <code value="nilknown"/>
      <display value="Nil Known"/>
     </coding>
    </emptyReason>
   </List>
  </resource>
 </entry>
 <entry>
  <fullUrl value="urn:uuid:ebe24eb4-72ff-4300-ac05-dbc69b73ce14"/>
  <resource>
   <Condition>
    <id value="ebe24eb4-72ff-4300-ac05-dbc69b73ce14"/>
    <meta>
     <profile value="https://fhir.nhs.uk/STU3/StructureDefinition/CareConnect-ITK-Condition-1"/>
    </meta>
    <identifier>
     <system value="https://tools.ietf.org/html/rfc4122"/>
     <value value="9f8cef2a-d77e-41a6-8c47-5e1e70570321"/>
    </identifier>
    <clinicalStatus value="active"/>
    <verificationStatus value="confirmed"/>
    <category>
     <coding>
      <system value="https://fhir.hl7.org.uk/STU3/CareConnect-ConditionCategory-1"/>
      <code value="diagnosis"/>
      <display value="Diagnosis"/>
     </coding>
    </category>
    <code>
     <coding>
      <system value="http://snomed.info/sct"/>
      <code value="64905009"/>
      <display value="Paranoid schizophrenia"/>
     </coding>
    </code>
    <subject>
     <reference value="urn:uuid:1c5a26fd-b317-4fc0-8e0d-7ed8c75d34d8"/>
    </subject>
    <context>
     <reference value="urn:uuid:c37a3a1a-0895-44c4-a79a-f7b7bb425e47"/>
    </context>
    <assertedDate value="2015-02-12"/>
    <asserter>
     <reference value="urn:uuid:1858f474-c235-4e73-ab8d-a0a2236613d6"/>
    </asserter>
   </Condition>
  </resource>
 </entry>
 <entry>
  <fullUrl value="urn:uuid:1c5a26fd-b317-4fc0-8e0d-7ed8c75d34d8"/>
  <resource>
   <Patient>
    <id value="1c5a26fd-b317-4fc0-8e0d-7ed8c75d34d8"/>
    <meta>
     <profile value="https://fhir.hl7.org.uk/STU3/StructureDefinition/CareConnect-Patient-1"/>
    </meta>
    <extension url="https://fhir.hl7.org.uk/STU3/StructureDefinition/Extension-CareConnect-EthnicCategory-1">
     <valueCodeableConcept>
      <coding>
       <system value="https://fhir.hl7.org.uk/STU3/CareConnect-EthnicCategory-1"/>
       <code value="CA"/>
       <display value="English"/>
      </coding>
     </valueCodeableConcept>
    </extension>
    <extension url="https://fhir.hl7.org.uk/STU3/StructureDefinition/Extension-CareConnect-ResidentialStatus-1">
     <valueCodeableConcept>
      <coding>
       <system value="https://fhir.hl7.org.uk/STU3/CareConnect-ResidentialStatus-1"/>
       <code value="H"/>
       <display value="UK Resident"/>
      </coding>
     </valueCodeableConcept>
    </extension>
    <extension url="https://fhir.hl7.org.uk/STU3/StructureDefinition/Extension-CareConnect-TreatmentCategory-1">
     <valueCodeableConcept>
      <coding>
       <system value="https://fhir.hl7.org.uk/STU3/CareConnect-TreatmentCategory-1"/>
       <code value="8"/>
       <display value="Not applicable"/>
      </coding>
     </valueCodeableConcept>
    </extension>
    <extension url="https://fhir.hl7.org.uk/STU3/StructureDefinition/Extension-CareConnect-NHSCommunication-1">
     <extension url="language">
      <valueCodeableConcept>
       <coding>
        <system value="https://fhir.hl7.org.uk/STU3/CareConnect-HumanLanguage-1"/>
        <code value="en"/>
        <display value="English"/>
       </coding>
      </valueCodeableConcept>
     </extension>
     <extension url="preferred">
      <valueBoolean value="true"/>
     </extension>
     <extension url="modeOfCommunication">
      <valueCodeableConcept>
       <coding>
        <system value="https://fhir.hl7.org.uk/STU3/CareConnect-LanguageAbilityMode-1"/>
        <code value="ESP"/>
        <display value="Expressed spoken"/>
       </coding>
      </valueCodeableConcept>
     </extension>
     <extension url="modeOfCommunication">
      <valueCodeableConcept>
       <coding>
        <system value="https://fhir.hl7.org.uk/STU3/CareConnect-LanguageAbilityMode-1"/>
        <code value="RWR"/>
        <display value="Received written"/>
       </coding>
      </valueCodeableConcept>
     </extension>
     <extension url="communicationProficiency">
      <valueCodeableConcept>
       <coding>
        <system value="https://fhir.hl7.org.uk/STU3/CareConnect-LanguageAbilityProficiency-1"/>
        <code value="E"/>
        <display value="Excellent"/>
       </coding>
      </valueCodeableConcept>
     </extension>
     <extension url="interpreterRequired">
      <valueBoolean value="false"/>
     </extension>
    </extension>
    <identifier>
     <extension url="https://fhir.hl7.org.uk/STU3/StructureDefinition/Extension-CareConnect-NHSNumberVerificationStatus-1">
      <valueCodeableConcept>
       <coding>
        <system value="https://fhir.hl7.org.uk/STU3/CareConnect-NHSNumberVerificationStatus-1"/>
        <code value="01"/>
        <display value="Number present and verified"/>
       </coding>
      </valueCodeableConcept>
     </extension>
     <system value="https://fhir.nhs.uk/Id/nhs-number"/>
     <value value="999 666 8887"/>
    </identifier>
    <active value="true"/>
    <name>
     <use value="official"/>
     <text value="Ms Elizabeth Black"/>
     <family value="Black"/>
     <given value="Elizabeth"/>
     <prefix value="Ms"/>
    </name>
    <name>
     <use value="usual"/>
     <text value="Liz Black"/>
     <family value="Black"/>
     <given value="Liz"/>
    </name>
    <gender value="female"/>
    <birthDate value="1969-06-09"/>
    <address>
     <use value="home"/>
     <line value="21, Grove Street, Overtown"/>
     <city value="Leeds"/>
     <district value="West Yorkshire"/>
     <postalCode value="LS21 4GG"/>
    </address>
    <maritalStatus>
     <coding>
      <system value="http://hl7.org/fhir/v3/NullFlavor"/>
      <code value="UNK"/>
      <display value="unknown"/>
     </coding>
    </maritalStatus>
    <contact>
<relationship>
      <coding>
       <system value="http://hl7.org/fhir/v2/0131"/>
       <code value="N"/>
       <display value="Next-of-Kin"/>
      </coding>
     </relationship>
     <name>
      <use value="official"/>
      <family value="Smith"/>
      <given value="Susan"/>
      <prefix value="Mrs"/>
     </name>
     <telecom>
      <system value="phone"/>
      <value value="0782345678"/>
      <use value="mobile"/>
     </telecom>
     <telecom>
      <system value="email"/>
      <value value="mrssuesmith@mymail.com"/>
     </telecom>
     <address>
     <use value="home"/>
     <line value="27, Grove Street, Overtown"/>
     <city value="Leeds"/>
     <district value="West Yorkshire"/>
     <postalCode value="LS21 4GG"/>
    </address>
     <gender value="female"/>
    </contact>
   </Patient>
  </resource>
 </entry>
 <entry>
  <fullUrl value="urn:uuid:4d6804c1-6e9a-4ddd-bf4d-bec9f6f13de7"/>
  <resource>
   <Practitioner>
    <id value="4d6804c1-6e9a-4ddd-bf4d-bec9f6f13de7"/>
    <meta>
     <profile value="https://fhir.hl7.org.uk/STU3/StructureDefinition/CareConnect-Practitioner-1"/>
    </meta>
    <identifier>
     <system value="https://fhir.nhs.uk/Id/sds-user-id"/>
     <value value="GP12345600"/>
    </identifier>
    <name>
     <family value="Lozo"/>
     <given value="James"/>
     <prefix value="Dr"/>
    </name>
    <telecom>
     <system value="phone"/>
     <value value="01634111222"/>
     <use value="work"/>
    </telecom>
    <telecom>
     <system value="email"/>
     <value value="James.Lozo@MMC.co.uk"/>
    </telecom>
   </Practitioner>
  </resource>
 </entry>
 <entry>
  <fullUrl value="urn:uuid:1858f474-c235-4e73-ab8d-a0a2236613d6"/>
  <resource>
   <Practitioner>
    <id value="1858f474-c235-4e73-ab8d-a0a2236613d6"/>
    <meta>
     <profile value="https://fhir.hl7.org.uk/STU3/StructureDefinition/CareConnect-Practitioner-1"/>
    </meta>
    <active value="true"/>
    <name>
     <family value="Beck"/>
     <given value="Daniel"/>
     <prefix value="Dr"/>
    </name>
   </Practitioner>
  </resource>
 </entry>
 <entry>
  <fullUrl value="urn:uuid:ba20623e-6d70-420e-bbf9-e4b6ac0f50b3"/>
  <resource>
   <Practitioner>
    <id value="ba20623e-6d70-420e-bbf9-e4b6ac0f50b3"/>
    <meta>
     <profile value="https://fhir.hl7.org.uk/STU3/StructureDefinition/CareConnect-Practitioner-1"/>
    </meta>
    <identifier>
     <system value="https://fhir.nhs.uk/Id/local-practitioner-identifier"/>
     <value value="9222477"/>
    </identifier>
    <active value="true"/>
    <name>
     <family value="Scott"/>
     <given value="Mike"/>
     <prefix value="Dr"/>
    </name>
    <telecom>
     <system value="phone"/>
     <value value="0113111222"/>
     <use value="work"/>
    </telecom>
   </Practitioner>
  </resource>
 </entry>
 <entry>
  <fullUrl value="urn:uuid:3572fd25-27ad-44d4-80a7-8e23c730e2f2"/>
  <resource>
   <Practitioner>
    <id value="3572fd25-27ad-44d4-80a7-8e23c730e2f2"/>
    <meta>
     <profile value="https://fhir.hl7.org.uk/STU3/StructureDefinition/CareConnect-Practitioner-1"/>
    </meta>
    <name>
     <family value="Gillingham"/>
     <given value="Gay"/>
     <prefix value="Mrs"/>
    </name>
    <telecom>
     <system value="phone"/>
     <value value="01136323200"/>
     <use value="work"/>
    </telecom>
   </Practitioner>
  </resource>
 </entry>
 <!--Role details for referenced practitioners-->
 <entry>
  <fullUrl value="urn:uuid:001c858c-3e3d-4b58-be94-0f46c79d8bae"/>
  <resource>
   <PractitionerRole>
    <id value="001c858c-3e3d-4b58-be94-0f46c79d8bae"/>
    <meta>
     <profile value="https://fhir.hl7.org.uk/STU3/StructureDefinition/CareConnect-PractitionerRole-1"/>
    </meta>
    <practitioner>
     <reference value="urn:uuid:4d6804c1-6e9a-4ddd-bf4d-bec9f6f13de7"/>
    </practitioner>
    <organization>
     <reference value="urn:uuid:0a8c9568-62d7-49f0-ab13-313215c497ab"/>
    </organization>
    <code>
     <coding>
      <system value="https://fhir.hl7.org.uk/STU3/CareConnect-SDSJobRoleName-1"/>
      <code value="R0260"/>
      <display value="General Medical Practitioner"/>
     </coding>
    </code>
   </PractitionerRole>
  </resource>
 </entry>
 <entry>
  <fullUrl value="urn:uuid:d53edede-fcb0-4bdd-9724-e4e5745f1b63"/>
  <resource>
   <PractitionerRole>
    <id value="d53edede-fcb0-4bdd-9724-e4e5745f1b63"/>
    <meta>
     <profile value="https://fhir.hl7.org.uk/STU3/StructureDefinition/CareConnect-PractitionerRole-1"/>
    </meta>
    <practitioner>
     <reference value="urn:uuid:1858f474-c235-4e73-ab8d-a0a2236613d6"/>
    </practitioner>
    <organization>
     <reference value="urn:uuid:35e7fc14-f7cb-4b6d-bb41-2ad7f45c501c"/>
    </organization>
    <code>
     <coding>
      <system value="https://fhir.hl7.org.uk/STU3/CareConnect-SDSJobRoleName-1"/>
      <code value="R0050"/>
      <display value="Consultant"/>
     </coding>
    </code>
   </PractitionerRole>
  </resource>
 </entry>
 <entry>
  <fullUrl value="urn:uuid:18e9c262-e21a-4b32-bf59-eae2e549f5a4"/>
  <resource>
   <PractitionerRole>
    <id value="18e9c262-e21a-4b32-bf59-eae2e549f5a4"/>
    <meta>
     <profile value="https://fhir.hl7.org.uk/STU3/StructureDefinition/CareConnect-PractitionerRole-1"/>
    </meta>
    <practitioner>
     <reference value="urn:uuid:ba20623e-6d70-420e-bbf9-e4b6ac0f50b3"/>
    </practitioner>
    <organization>
     <reference value="urn:uuid:35e7fc14-f7cb-4b6d-bb41-2ad7f45c501c"/>
    </organization>
    <code>
     <coding>
      <system value="https://fhir.hl7.org.uk/STU3/CareConnect-SDSJobRoleName-1"/>
      <code value="R0110"/>
      <display value="Specialist Registrar"/>
     </coding>
    </code>
   </PractitionerRole>
  </resource>
 </entry>
 <entry>
  <fullUrl value="urn:uuid:5eb010c9-4e22-43cb-a0d8-09aa382903c7"/>
  <resource>
   <PractitionerRole>
    <id value="5eb010c9-4e22-43cb-a0d8-09aa382903c7"/>
    <meta>
     <profile value="https://fhir.hl7.org.uk/STU3/StructureDefinition/CareConnect-PractitionerRole-1"/>
    </meta>
    <practitioner>
     <reference value="urn:uuid:3572fd25-27ad-44d4-80a7-8e23c730e2f2"/>
    </practitioner>
    <organization>
     <reference value="urn:uuid:35e7fc14-f7cb-4b6d-bb41-2ad7f45c501c"/>
    </organization>
    <code>
     <coding>
      <system value="https://fhir.hl7.org.uk/STU3/CareConnect-SDSJobRoleName-1"/>
      <code value="R0050"/>
      <display value="Consultant"/>
     </coding>
     <text value="Community Team Member"/>
    </code>
   </PractitionerRole>
  </resource>
 </entry>
 <entry>
  <fullUrl value="urn:uuid:0a8c9568-62d7-49f0-ab13-313215c497ab"/>
  <resource>
   <Organization>
    <id value="0a8c9568-62d7-49f0-ab13-313215c497ab"/>
    <meta>
     <profile value="https://fhir.hl7.org.uk/STU3/StructureDefinition/CareConnect-Organization-1"/>
    </meta>
    <identifier>
     <system value="https://fhir.nhs.uk/Id/ods-organization-code"/>
     <value value="GP123456"/>
    </identifier>
    <active value="true"/>
    <type>
     <coding>
      <system value="http://hl7.org/fhir/organization-type"/>
      <code value="prov"/>
      <display value="Healthcare Provider"/>
     </coding>
    </type>
    <name value="MGP Medical Centre"/>
    <telecom>
     <system value="phone"/>
     <value value="01634111223"/>
     <use value="work"/>
    </telecom>
    <telecom>
     <system value="email"/>
     <value value="Admin@MMC.co.uk"/>
    </telecom>
    <address>
     <use value="work"/>
     <type value="both"/>
     <text value="1 MGP House, Overtown, West Yorks, LN21"/>
     <line value="1 MGP House"/>
     <line value="Overtown"/>
     <city value="Leeds"/>
     <district value="West Yorks"/>
     <postalCode value="LS21 7PA"/>
    </address>
   </Organization>
  </resource>
 </entry>
 <entry>
  <fullUrl value="urn:uuid:35e7fc14-f7cb-4b6d-bb41-2ad7f45c501c"/>
  <resource>
   <Organization>
    <id value="35e7fc14-f7cb-4b6d-bb41-2ad7f45c501c"/>
    <meta>
     <profile value="https://fhir.hl7.org.uk/STU3/StructureDefinition/CareConnect-Organization-1"/>
    </meta>
    <identifier>
     <system value="https://fhir.nhs.uk/Id/ods-organization-code"/>
     <value value="RGD"/>
    </identifier>
    <active value="true"/>
    <type>
     <coding>
      <system value="http://hl7.org/fhir/organization-type"/>
      <code value="prov"/>
      <display value="Healthcare Provider"/>
     </coding>
    </type>
    <name value="Leeds Mental Health NHS Trust"/>
    <telecom>
     <system value="phone"/>
     <value value="01132434444"/>
     <use value="work"/>
    </telecom>
    <address>
     <line value="Twenty One Fifty"/>
     <line value="Thorpe Park"/>
     <city value="Leeds"/>
     <postalCode value="LS15 8ZB"/>
    </address>
   </Organization>
  </resource>
 </entry>
 <entry>
  <fullUrl value="urn:uuid:234e4b0b-4d45-4a36-9662-60588447c64f"/>
  <resource>
   <Location>
    <id value="234e4b0b-4d45-4a36-9662-60588447c64f"/>
    <meta>
     <profile value="https://fhir.hl7.org.uk/STU3/StructureDefinition/CareConnect-Location-1"/>
    </meta>
    <identifier>
     <system value="https://fhir.nhs.uk/Id/ods-site-code"/>
     <value value="RGDBL"/>
    </identifier>
    <name value="Becklin Centre"/>
    <address>
     <line value="Alma Street"/>
     <city value="Leeds"/>
     <postalCode value="LS9 7BE"/>
    </address>
    <physicalType>
     <coding>
      <system value="http://hl7.org/fhir/location-physical-type"/>
      <code value="si"/>
      <display value="Site"/>
     </coding>
    </physicalType>
    <managingOrganization>
     <reference value="urn:uuid:35e7fc14-f7cb-4b6d-bb41-2ad7f45c501c"/>
    </managingOrganization>
   </Location>
  </resource>
 </entry>
 <entry>
  <fullUrl value="urn:uuid:d19c145a-9fa4-401d-89cc-4024c1a9b74a"/>
  <resource>
   <Location>
    <id value="d19c145a-9fa4-401d-89cc-4024c1a9b74a"/>
    <meta>
     <profile value="https://fhir.hl7.org.uk/STU3/StructureDefinition/CareConnect-Location-1"/>
    </meta>
    <name value="Allerton Ward"/>
    <address>
     <line value="Second Floor"/>
     <line value="Becklin Centre"/>
     <line value="Alma Street"/>
     <city value="Leeds"/>
     <postalCode value="LS9 7BE"/>
    </address>
    <physicalType>
     <coding>
      <system value="http://hl7.org/fhir/location-physical-type"/>
      <code value="wa"/>
      <display value="Ward"/>
     </coding>
    </physicalType>
    <managingOrganization>
     <reference value="urn:uuid:35e7fc14-f7cb-4b6d-bb41-2ad7f45c501c"/>
    </managingOrganization>
    <partOf>
     <reference value="urn:uuid:234e4b0b-4d45-4a36-9662-60588447c64f"/>
    </partOf>
   </Location>
  </resource>
 </entry>
</Bundle>
