<?xml version="1.0" encoding="UTF-8"?>
<!--This xml example is for illustrative purposes only and has not been clinically verified-->
<Bundle xmlns="http://hl7.org/fhir">
 <id value="fab7e268-99dc-4c04-ae7e-c1d6a784c098"/>
 <meta>
  <profile value="https://fhir.nhs.uk/STU3/StructureDefinition/ITK-Document-Bundle-1"/>
 </meta>
 <identifier>
  <system value="https://tools.ietf.org/html/rfc4122"/>
  <value value="d929db2f-5781-4667-a4c2-098e2d986074"/>
 </identifier>
 <type value="document"/>
 <!--Outpatient Letter Composition-->
 <entry>
  <fullUrl value="urn:uuid:5afa2be6-651e-48e9-9712-fc81bb4b8c12"/>
  <resource>
   <Composition>
    <id value="5afa2be6-651e-48e9-9712-fc81bb4b8c12"/>
    <meta>
     <profile value="https://fhir.nhs.uk/STU3/StructureDefinition/ITK-OPL-Composition-1"/>
    </meta>
    <!-- Information Recipient 1 - the patient-->
    <extension url="https://fhir.nhs.uk/STU3/StructureDefinition/Extension-ITK-InformationRecipient-1">
     <valueReference>
      <reference value="urn:uuid:862b638b-6f75-4f4b-870f-40d9c8f99e57"/>
     </valueReference>
    </extension>
    <!-- Information Recipient 2 - the patient's GP -->
    <extension url="https://fhir.nhs.uk/STU3/StructureDefinition/Extension-ITK-InformationRecipient-1">
     <valueReference>
      <reference value="urn:uuid:8b2ef03f-6d11-40fe-b199-b3f5a09b5028"/>
     </valueReference>
    </extension>
    <!-- Care Setting Type -->
    <extension url="https://fhir.nhs.uk/STU3/StructureDefinition/Extension-ITK-CareSettingType-1">
     <valueCodeableConcept>
      <coding>
       <system value="http://snomed.info/sct"/>
       <code value="310164003"/>
       <display value="Plastic surgery service"/>
      </coding>
     </valueCodeableConcept>
    </extension>
    <identifier>
     <value value="22b6c1fb-e6f4-4f4d-a4a7-2c6b0188b580"/>
    </identifier>
    <status value="final"/>
    <type>
     <!--Outpatient letter -->
     <coding>
      <system value="http://snomed.info/sct"/>
      <code value="823681000000100"/>
      <display value="Outpatient letter"/>
     </coding>
    </type>
    <subject>
     <reference value="urn:uuid:862b638b-6f75-4f4b-870f-40d9c8f99e57"/>
    </subject>
    <encounter>
     <reference value="urn:uuid:c6184a32-b332-440c-9ecc-21c17a6d3528"/>
    </encounter>
    <!--The composition editing time, when the composition was last logically changed by the author.-->
    <date value="2017-05-16T16:42:00+00:00"/>
    <!--Identifies who is responsible for the information in the composition, not necessarily who typed it in-->
    <author>
     <reference value="urn:uuid:5cfdc975-9f0e-48af-b4ac-8114987cb7e0"/>
    </author>
    <title value="Outpatient letter"/>
    <!--The code specifying the level of confidentiality of the Composition.-->
    <confidentiality value="V"/>
    <!--Identifies the organization responsible for ongoing maintenance of and access to the composition/document information.-->
    <custodian>
     <reference value="urn:uuid:77cef538-3c15-41c9-8a10-fbbb89fb396a"/>
    </custodian>
    <!--Attendance details section-->
    <section>
     <title value="Attendance details"/>
     <code>
      <coding>
       <system value="http://snomed.info/sct"/>
       <code value="1077881000000105"/>
       <display value="Attendance details"/>
      </coding>
     </code>
     <text>
      <status value="generated"/>
      <div xmlns="http://www.w3.org/1999/xhtml">
       <table width="100%">
        <tbody>
         <tr>
          <td colspan="2" style="width:100%">Dear Dr. C. O'Reilly, <br/>I had the pleasure of meeting Mrs. Beckett in my general plastic surgery clinic, referred by Dr. William Yates, Dermatology Consultant, St Crispin's Hospital, Donaldstown, DO1 4XP (01234) 567890.<br/>
          </td>
         </tr>
         <tr>
          <th>Date of appointment/contact</th>
          <td>16 May 2017</td>
         </tr>
         <tr>
          <th>Contact type</th>
          <td>First attendance face to face</td>
         </tr>
         <tr>
          <th>Consultation method</th>
          <td>Face-to-face</td>
         </tr>
         <tr>
          <th>Responsible healthcare professional</th>
          <td>Dr. Shauna O'Casey (Consultant Surgeon)</td>
         </tr>
         <tr>
          <th>Seen by</th>
          <td>
           <p>Dr. Shauna O'Casey (Consultant Surgeon) Tel: (01234) 567890</p>
           <p>Patricia Kavanagh (Skin cancer specialist nurse)</p>
          </td>
         </tr>
         <tr>
          <th>Service</th>
          <td>Plastic surgery service</td>
         </tr>
         <tr>
          <th>Outcome of patient attendance</th>
          <td>Appointment to be made at a later date</td>
         </tr>
         <tr>
          <th>Care professionals present</th>
          <td>Jane Joyce, HCA</td>
         </tr>
        </tbody>
       </table>
      </div>
     </text>
     <orderedBy>
      <coding>
       <system value="http://hl7.org/fhir/list-order"/>
       <code value="system"/>
       <display value="Sorted by System"/>
      </coding>
     </orderedBy>
     <entry>
      <reference value="urn:uuid:c6184a32-b332-440c-9ecc-21c17a6d3528"/>
     </entry>
    </section>
    <!--Referrer details-->
    <section>
     <title value="Referrer details"/>
     <code>
      <coding>
       <system value="http://snomed.info/sct"/>
       <code value="1052891000000108"/>
       <display value="Referrer details"/>
      </coding>
     </code>
     <text>
      <status value="generated"/>
      <div xmlns="http://www.w3.org/1999/xhtml">
       <table width="100%">
        <tbody>
         <tr>
          <th>Referrer Name</th>
          <td>
           <p>Dr. William Yates</p>
           <p>Role: Dermatology Consultant</p>
           <p>Tel: (01234) 567890</p>
           <p>Organisation: St Crispin's Hospital, Donaldstown, DO1 4XP</p>
          </td>
         </tr>
        </tbody>
       </table>
      </div>
     </text>
    </section>
    <!--Diagnoses-->
    <section>
     <title value="Diagnoses"/>
     <code>
      <coding>
       <system value="http://snomed.info/sct"/>
       <code value="887161000000102"/>
       <display value="Diagnoses"/>
      </coding>
     </code>
     <text>
      <status value="generated"/>
      <div xmlns="http://www.w3.org/1999/xhtml">
       <table>
        <tbody>
         <tr>
          <th>Diagnosis/symptom</th>
          <td>Lesion on forearm</td>
         </tr>
         <tr>
          <th>Diagnosis/symptom</th>
          <td>Hypertension</td>
         </tr>
        </tbody>
       </table>
      </div>
     </text>
     <orderedBy>
      <coding>
       <system value="http://hl7.org/fhir/list-order"/>
       <code value="system"/>
       <display value="Sorted by System"/>
      </coding>
     </orderedBy>
     <!--Reference to Condition resources-->
     <entry>
      <reference value="urn:uuid:bc933abf-ac13-4516-b56d-bd7818124be5"/>
     </entry>
     <entry>
      <reference value="urn:uuid:811a3c7c-80a3-4811-a72d-620fc7732ab6"/>
     </entry>
    </section>
    <section>
     <title value="Clinical summary"/>
     <code>
      <coding>
       <system value="http://snomed.info/sct"/>
       <code value="887181000000106"/>
       <display value="Clinical summary"/>
      </coding>
     </code>
     <text>
      <status value="generated"/>
      <div xmlns="http://www.w3.org/1999/xhtml">
       <table width="100%">
        <tbody>
         <tr>
          <th>Clinical Summary</th>
         </tr>
         <tr>
          <td>This delightful lady has presented with a 10 month history of a left arm lesion that is rapidly growing and will require excisional biopsy to confirm the nature of the growth.</td>
         </tr>
        </tbody>
       </table>
      </div>
     </text>
    </section>
    <!--Plan and requested actions-->
    <section>
     <title value="Plan and requested actions"/>
     <code>
      <coding>
       <system value="http://snomed.info/sct"/>
       <code value="887201000000105"/>
       <display value="Plan and requested actions"/>
      </coding>
     </code>
     <text>
      <status value="generated"/>
      <div xmlns="http://www.w3.org/1999/xhtml">
       <table width="100%">
        <tbody>
         <tr>
          <th>Plan and requested actions for healthcare professionals</th>
         </tr>
         <tr>
          <td>Added to waiting list for excisional biopsy of lesion and direct closure on left forearm by	Dr. Shauna O'Casey, 16/05/17</td>
         </tr>
        </tbody>
       </table>
      </div>
     </text>
    </section>
    <!--Individual requirements-->
    <section>
     <title value="Individual requirements"/>
     <code>
      <coding>
       <system value="http://snomed.info/sct"/>
       <code value="1052901000000109"/>
       <display value="Individual requirement"/>
      </coding>
     </code>
     <text>
      <status value="generated"/>
      <div xmlns="http://www.w3.org/1999/xhtml">
       <table width="100%">
        <tbody>
         <tr>
          <th>Individual requirement</th>
          <td>Polish national with limited English - needs an interpreter.</td>
         </tr>
        </tbody>
       </table>
      </div>
     </text>
     <orderedBy>
      <coding>
       <system value="http://hl7.org/fhir/list-order"/>
       <code value="system"/>
       <display value="Sorted by System"/>
      </coding>
     </orderedBy>
     <!--Reference to Observation resource-->
     <entry>
      <reference value="urn:uuid:0b347730-7e70-4cbb-8f07-ae0c367bb48b"/>
     </entry>
    </section>
    <!--History-->
    <section>
     <title value="History"/>
     <code>
      <coding>
       <system value="http://snomed.info/sct"/>
       <code value="717121000000105"/>
       <display value="History"/>
      </coding>
     </code>
     <text>
      <status value="generated"/>
      <div xmlns="http://www.w3.org/1999/xhtml">
       <table width="100%">
        <tbody>
         <tr>
          <th>History</th>
         </tr>
         <tr>
          <td>Potential Squamous cell carcinoma to left forearm. Rapidly growing lesion to left forearm x 10 months. Has seen dermatologists who have assessed and referred on to Plastics for surgical excision and possible skin grafting after lesion is excised.</td>
         </tr>
        </tbody>
       </table>
      </div>
     </text>
     <orderedBy>
      <coding>
       <system value="http://hl7.org/fhir/list-order"/>
       <code value="system"/>
       <display value="Sorted by System"/>
      </coding>
     </orderedBy>
     <!--References to supporting Condition/Observations resources-->
     <entry>
      <reference value="urn:uuid:ad1381ba-8f5e-4755-b2b2-0f0d16fc8464"/>
     </entry>
     <entry>
      <reference value="urn:uuid:bc933abf-ac13-4516-b56d-bd7818124be5"/>
     </entry>
    </section>
    <!--Family history-->
    <section>
     <title value="Family history"/>
     <code>
      <coding>
       <system value="http://snomed.info/sct"/>
       <code value="887111000000104"/>
       <display value="Family history"/>
      </coding>
     </code>
     <text>
      <status value="generated"/>
      <div xmlns="http://www.w3.org/1999/xhtml">
       <table width="100%">
        <tbody>
         <tr>
          <th>Family history</th>
         </tr>
         <tr>
          <td>Mrs. Beckett's father died of melanoma at 62 years old.</td>
         </tr>
        </tbody>
       </table>
      </div>
     </text>
     <orderedBy>
      <coding>
       <system value="http://hl7.org/fhir/list-order"/>
       <code value="system"/>
       <display value="Sorted by System"/>
      </coding>
     </orderedBy>
     <!--References to supporting FamilyMemberHistory resource-->
     <entry>
      <reference value="urn:uuid:5838cb78-05e9-448d-8940-c9f621d64f2a"/>
     </entry>
    </section>
    <!--Examination findings-->
    <section>
     <title value="Examination findings"/>
     <code>
      <coding>
       <system value="http://snomed.info/sct"/>
       <code value="715851000000102"/>
       <display value="Examination findings"/>
      </coding>
     </code>
     <text>
      <status value="generated"/>
      <div xmlns="http://www.w3.org/1999/xhtml">
       <table width="100%">
        <tbody>
         <tr>
          <th>Examination findings</th>
         </tr>
         <tr>
          <td>Mrs. Beckett is well. There are no skin lesions to the body other than left forearm. She has a 3x2cm scaly lesion which is centrally ulcerated. There was no evidence of left axillary or cervical node involvement.</td>
         </tr>
        </tbody>
       </table>
      </div>
     </text>
     <orderedBy>
      <coding>
       <system value="http://hl7.org/fhir/list-order"/>
       <code value="system"/>
       <display value="Sorted by System"/>
      </coding>
     </orderedBy>
     <!--Supporting Observation/Condition resources-->
     <entry>
      <reference value="urn:uuid:2483d669-06a6-46c8-b8e8-2d27e298b070"/>
     </entry>
     <entry>
      <reference value="urn:uuid:5d33450c-775c-424e-86d9-450db6032c4b"/>
     </entry>
    </section>
    <!--Allergies and adverse reactions-->
    <section>
     <title value="Allergies and adverse reactions"/>
     <code>
      <coding>
       <system value="http://snomed.info/sct"/>
       <code value="886921000000105"/>
       <display value="Allergies and adverse reactions"/>
      </coding>
     </code>
     <text>
      <status value="generated"/>
      <div xmlns="http://www.w3.org/1999/xhtml">
       <table width="100%">
        <tbody>
         <tr>
          <th>Causative agent</th>
          <td>Penicillin</td>
         </tr>
          <tr>
          <th>Reaction details</th>
           <td>Description of reaction:<br />Nausea and vomiting</td>
        </tr>
         <tr>
          <th>Type of reaction</th>
          <td>Intolerance/Adverse</td>
         </tr>
         <tr>
          <th>Severity</th>
          <td>Minor</td>
         </tr>
         <tr>
          <th>Probability of recurrence</th>
          <td>Likely</td>
         </tr>
         <tr>
          <th>Date first experienced</th>
          <td>4 years ago</td>
         </tr>
        </tbody>
       </table>
      </div>
     </text>
     <orderedBy>
      <coding>
       <system value="http://hl7.org/fhir/list-order"/>
       <code value="system"/>
       <display value="Sorted by System"/>
      </coding>
     </orderedBy>
     <entry>
      <reference value="urn:uuid:f4302d9f-3776-4d51-aca1-d01020e9a9c1"/>
     </entry>
    </section>
    <!--Social context-->
    <section>
     <title value="Social context"/>
     <code>
      <coding>
       <system value="http://snomed.info/sct"/>
       <code value="887051000000101"/>
       <display value="Social context"/>
      </coding>
     </code>
     <text>
      <status value="generated"/>
      <div xmlns="http://www.w3.org/1999/xhtml">
       <table width="100%">
        <tbody>
         <tr>
          <th>Household composition</th>
          <td>Mrs. Beckett lives with her husband.</td>
         </tr>
         <tr>
          <th>Occupational history</th>
          <td>Mrs. Beckett is a factory worker.</td>
         </tr>
         <tr>
          <th>Smoking</th>
          <td>She does not smoke.</td>
         </tr>
         <tr>
          <th>Alcohol intake</th>
          <td>Her alcohol intake is rare.</td>
         </tr>
        </tbody>
       </table>
      </div>
     </text>
     <orderedBy>
      <coding>
       <system value="http://hl7.org/fhir/list-order"/>
       <code value="system"/>
       <display value="Sorted by System"/>
      </coding>
     </orderedBy>
     <!--References to supporting Observation resources-->
     <entry>
      <reference value="urn:uuid:b83d4763-c9d4-40c1-9785-97f30f01ab7d"/>
     </entry>
    </section>
    <!--Information and advice given-->
    <section>
     <title value="Information and advice given"/>
     <code>
      <coding>
       <system value="http://snomed.info/sct"/>
       <code value="1052951000000105"/>
       <display value="Information and advice given"/>
      </coding>
     </code>
     <text>
      <status value="generated"/>
      <div xmlns="http://www.w3.org/1999/xhtml">
       <table width="100%">
        <tbody>
         <tr>
          <th>Information and advice given</th>
          <td>Patient seen by the skin cancer Specialist Nurse and has been reassured of her place. I have warned her of the risk of infection, bleeding, reoperation, scarring, wound dehiscence and the need for dressings.  She understands this and is happy to be added to the waiting list.
</td>
         </tr>
        </tbody>
       </table>
      </div>
     </text>
    </section>
    <!--Person completing record-->
    <section>
     <title value="Person completing record"/>
     <code>
      <coding>
       <system value="http://snomed.info/sct"/>
       <code value="887231000000104"/>
       <display value="Person completing record"/>
      </coding>
     </code>
     <text>
      <status value="generated"/>
      <div xmlns="http://www.w3.org/1999/xhtml">
       <table width="100%">
        <tbody>
         <tr>
          <th>Name</th>
          <td>Dr. Shauna O'Casey</td>
         </tr>
         <tr>
          <th>Role</th>
          <td>Consultant Plastic and Reconstructive Surgeon</td>
         </tr>
         <tr>
          <th>Specialty</th>
          <td>Plastic Surgery</td>
         </tr>
         <tr>
          <th>Professional identifier</th>
          <td>6775580</td>
         </tr>
         <tr>
          <th>Date and time completed</th>
          <td>16 May 2017 16:42</td>
         </tr>
         <tr>
          <th>Contact details</th>
          <td>Tel: (01234) 567890</td>
         </tr>
        </tbody>
       </table>
      </div>
     </text>
    </section>
   </Composition>
  </resource>
 </entry>
 <!--Encounter Example 1-->
 <entry>
  <fullUrl value="urn:uuid:c6184a32-b332-440c-9ecc-21c17a6d3528"/>
  <resource>
   <Encounter>
    <id value="c6184a32-b332-440c-9ecc-21c17a6d3528"/>
    <meta>
     <profile value="https://fhir.nhs.uk/STU3/StructureDefinition/CareConnect-ITK-Encounter-1"/>
    </meta>
    <identifier>
     <system value="https://tools.ietf.org/html/rfc4122"/>
     <value value="159372d5-de3b-42be-823d-8a7bdb172bde"/>
    </identifier>
    <status value="finished"/>
    <class>
     <system value="http://hl7.org/fhir/v3-ActEncounterCode"/>
     <code value="AMB"/>
     <display value="ambulatory"/>
    </class>
    <!--Specific type of encounter-->
    <type>
     <coding>
      <system value="http://snomed.info/sct"/>
      <code value="163381000000105"/>
      <display value="Outpatient Clinic Attendance"/>
     </coding>
    </type>
    <subject>
     <reference value="urn:uuid:862b638b-6f75-4f4b-870f-40d9c8f99e57"/>
    </subject>
    <!--Reference to the participants present during the encounter-->
    <participant>
     <type>
      <coding>
       <system value="http://hl7.org/fhir/v3/ParticipationType"/>
       <code value="ATND"/>
       <display value="attender"/>
      </coding>
     </type>
     <individual>
      <reference value="urn:uuid:5cfdc975-9f0e-48af-b4ac-8114987cb7e0"/>
     </individual>
    </participant>
    <participant>
     <type>
      <coding>
       <system value="http://hl7.org/fhir/v3/ParticipationType"/>
       <code value="PART"/>
       <display value="Participation"/>
      </coding>
     </type>
     <individual>
      <reference value="urn:uuid:a4dec203-3364-4152-b61b-045be256bc93"/>
     </individual>
    </participant>
    <participant>
     <type>
      <coding>
       <system value="http://hl7.org/fhir/v3/ParticipationType"/>
       <code value="PART"/>
       <display value="Participation"/>
      </coding>
     </type>
     <individual>
      <reference value="urn:uuid:c6387b76-d27b-4fcf-9a91-93ca5c16b4fd"/>
     </individual>
    </participant>
    <period>
     <start value="2017-05-16T09:00:00+00:00"/>
     <end value="2017-05-16T09:45:00+00:00"/>
    </period>
    <!--	The list of diagnoses relevant to this encounter-->
    <diagnosis>
     <condition>
      <reference value="urn:uuid:bc933abf-ac13-4516-b56d-bd7818124be5"/>
     </condition>
    </diagnosis>
    <hospitalization>
     <admitSource>
      <coding>
       <system value="http://hl7.org/fhir/admit-source"/>
       <code value="mp"/>
       <display value="Medical Practitioner/physician referral"/>
      </coding>
     </admitSource>
     <dischargeDisposition>
      <coding>
       <system value="http://hl7.org/fhir/discharge-disposition"/>
       <code value="home"/>
       <display value="Home"/>
      </coding>
     </dischargeDisposition>
    </hospitalization>
    <location>
     <location>
      <reference value="urn:uuid:9d50f37f-f964-40c3-906f-24db7666a2ab"/>
     </location>
    </location>
   </Encounter>
  </resource>
 </entry>
 <!--Family member history-->
 <entry>
  <fullUrl value="urn:uuid:5838cb78-05e9-448d-8940-c9f621d64f2a"/>
  <resource>
   <FamilyMemberHistory>
    <id value="5838cb78-05e9-448d-8940-c9f621d64f2a"/>
    <meta>
     <profile value="https://fhir.nhs.uk/STU3/StructureDefinition/ITK-FamilyMemberHistory-1"/>
    </meta>
    <status value="completed"/>
    <patient>
     <reference value="urn:uuid:862b638b-6f75-4f4b-870f-40d9c8f99e57"/>
    </patient>
    <relationship>
     <coding>
      <system value="http://hl7.org/fhir/v3/RoleCode"/>
      <code value="FTH"/>
      <display value="father"/>
     </coding>
    </relationship>
    <gender value="male"/>
    <deceasedBoolean value="true"/>
    <condition>
     <code>
      <coding>
       <system value="http://snomed.info/sct"/>
       <code value="427858005"/>
       <display value="Family history of malignant melanoma"/>
      </coding>
     </code>
     <outcome>
      <coding>
       <system value="http://snomed.info/sct"/>
       <code value="419099009"/>
       <display value="Dead"/>
      </coding>
     </outcome>
    </condition>
   </FamilyMemberHistory>
  </resource>
 </entry>
 <!--Allergies List-->
 <entry>
  <fullUrl value="urn:uuid:f4302d9f-3776-4d51-aca1-d01020e9a9c1"/>
  <resource>
   <List>
    <id value="f4302d9f-3776-4d51-aca1-d01020e9a9c1"/>
    <meta>
     <profile value="https://fhir.nhs.uk/STU3/StructureDefinition/ITK-Allergies-List-1"/>
    </meta>
    <identifier>
     <system value="https://tools.ietf.org/html/rfc4122"/>
     <value value="93e491c0-18d7-449d-8616-45c8fdef80d3"/>
    </identifier>
    <status value="current"/>
    <mode value="snapshot"/>
    <code>
     <coding>
      <system value="http://hl7.org/fhir/list-example-use-codes"/>
      <code value="allergies"/>
      <display value="Allergies"/>
     </coding>
    </code>
    <subject>
     <reference value="urn:uuid:862b638b-6f75-4f4b-870f-40d9c8f99e57"/>
    </subject>
    <encounter>
     <reference value="urn:uuid:c6184a32-b332-440c-9ecc-21c17a6d3528"/>
    </encounter>
    <entry>
     <flag>
      <coding>
       <system value="https://fhir.nhs.uk/STU3/CodeSystem/ITK-PatientAllergyChangeType-1"/>
       <code value="01"/>
       <display value="Unchanged"/>
      </coding>
     </flag>
     <item>
      <reference value="urn:uuid:89de84b7-f877-456a-9292-0d87a52c0da2"/>
     </item>
    </entry>
   </List>
  </resource>
 </entry>
 <!--Allergy Intolerance Example 1-->
 <entry>
  <fullUrl value="urn:uuid:89de84b7-f877-456a-9292-0d87a52c0da2"/>
  <resource>
   <AllergyIntolerance>
    <id value="89de84b7-f877-456a-9292-0d87a52c0da2"/>
    <meta>
     <profile value="https://fhir.hl7.org.uk/STU3/StructureDefinition/CareConnect-AllergyIntolerance-1"/>
    </meta>
    <extension url="https://fhir.hl7.org.uk/STU3/StructureDefinition/Extension-CareConnect-ProbabilityOfRecurrence-1">
     <valueString value="Likely"/>
    </extension>
    <identifier>
     <system value="https://tools.ietf.org/html/rfc4122"/>
     <value value="b0e5f445-3706-46cc-9cdb-49cfa4caa5ab"/>
    </identifier>
    <clinicalStatus value="active"/>
    <verificationStatus value="confirmed"/>
    <type value="allergy"/>
    <category value="medication"/>
    <patient>
     <reference value="urn:uuid:862b638b-6f75-4f4b-870f-40d9c8f99e57"/>
    </patient>
    <onsetDateTime value="2013-05-12"/>
    <reaction>
     <substance>
      <coding>
       <system value="http://snomed.info/sct"/>
       <code value="373270004"/>
       <display value="Penicillin -class of antibiotic-"/>
      </coding>
     </substance>
     <manifestation>
      <coding>
       <system value="http://snomed.info/sct"/>
       <code value="16932000"/>
       <display value="Nausea and vomiting"/>
      </coding>
     </manifestation>
    </reaction>
   </AllergyIntolerance>
  </resource>
 </entry>
 <!--Allergy Flag Example 1-->
 <entry>
  <fullUrl value="urn:uuid:2bd3e32a-7779-4ad9-9e2d-37f8e8998380"/>
  <resource>
   <Flag>
    <id value="2bd3e32a-7779-4ad9-9e2d-37f8e8998380"/>
    <meta>
     <profile value="https://fhir.nhs.uk/STU3/StructureDefinition/ITK-Allergy-Flag-1"/>
    </meta>
    <extension url="https://fhir.nhs.uk/STU3/StructureDefinition/Extension-ITK-AllergyFlagDetail-1">
     <valueReference>
      <reference value="urn:uuid:89de84b7-f877-456a-9292-0d87a52c0da2"/>
     </valueReference>
    </extension>
    <identifier>
     <system value="https://tools.ietf.org/html/rfc4122"/>
     <value value="7c931ddc-008f-4c3b-a444-cac34163c1eb"/>
    </identifier>
    <status value="active"/>
    <category>
     <coding>
      <system value="http://snomed.info/sct"/>
      <code value="886921000000105"/>
      <display value="Allergies and adverse reactions"/>
     </coding>
    </category>
    <code>
     <coding>
      <system value="http://snomed.info/sct"/>
      <code value="416098002"/>
      <display value="Drug allergy"/>
     </coding>
    </code>
    <subject>
     <reference value="urn:uuid:862b638b-6f75-4f4b-870f-40d9c8f99e57"/>
    </subject>
   </Flag>
  </resource>
 </entry>
 <!--Condition 1-->
 <entry>
  <fullUrl value="urn:uuid:bc933abf-ac13-4516-b56d-bd7818124be5"/>
  <resource>
   <Condition>
    <id value="bc933abf-ac13-4516-b56d-bd7818124be5"/>
    <meta>
     <profile value="https://fhir.nhs.uk/STU3/StructureDefinition/CareConnect-ITK-Condition-1"/>
    </meta>
    <identifier>
     <system value="https://tools.ietf.org/html/rfc4122"/>
     <value value="dfa53c1a-31e3-4b3f-9e46-b89b36c974a0"/>
    </identifier>
    <clinicalStatus value="active"/>
    <verificationStatus value="confirmed"/>
    <category>
     <coding>
      <system value="https://fhir.hl7.org.uk/STU3/CareConnect-ConditionCategory-1"/>
      <code value="finding"/>
      <display value="Finding"/>
     </coding>
    </category>
    <code>
     <coding>
      <system value="http://snomed.info/sct"/>
      <code value="95324001"/>
      <display value="Skin lesion"/>
     </coding>
    </code>
    <bodySite>
     <coding>
      <system value="http://snomed.info/sct"/>
      <code value="66480008"/>
      <display value="Left forearm"/>
     </coding>
    </bodySite>
    <subject>
     <reference value="urn:uuid:862b638b-6f75-4f4b-870f-40d9c8f99e57"/>
    </subject>
    <context>
     <reference value="urn:uuid:c6184a32-b332-440c-9ecc-21c17a6d3528"/>
    </context>
    <onsetPeriod>
     <start value="2016-07-01"/>
    </onsetPeriod>
    <abatementBoolean value="false"/>
    <assertedDate value="2017-05-16"/>
    <asserter>
     <reference value="urn:uuid:5cfdc975-9f0e-48af-b4ac-8114987cb7e0"/>
    </asserter>
   </Condition>
  </resource>
 </entry>
 <!--Condition 2-->
 <entry>
  <fullUrl value="urn:uuid:811a3c7c-80a3-4811-a72d-620fc7732ab6"/>
  <resource>
   <Condition>
    <id value="811a3c7c-80a3-4811-a72d-620fc7732ab6"/>
    <meta>
     <profile value="https://fhir.nhs.uk/STU3/StructureDefinition/CareConnect-ITK-Condition-1"/>
    </meta>
    <identifier>
     <system value="https://tools.ietf.org/html/rfc4122"/>
     <value value="e42fd96e-ce30-4c61-801a-85c5513a1532"/>
    </identifier>
    <clinicalStatus value="active"/>
    <verificationStatus value="confirmed"/>
    <category>
     <coding>
      <system value="https://fhir.hl7.org.uk/STU3/CareConnect-ConditionCategory-1"/>
      <code value="diagnosis"/>
      <display value="Diagnosis"/>
     </coding>
    </category>
    <code>
     <coding>
      <system value="http://snomed.info/sct"/>
      <code value="38341003"/>
      <display value="Hypertension"/>
     </coding>
    </code>
    <subject>
     <reference value="urn:uuid:862b638b-6f75-4f4b-870f-40d9c8f99e57"/>
    </subject>
    <context>
     <reference value="urn:uuid:c6184a32-b332-440c-9ecc-21c17a6d3528"/>
    </context>
    <assertedDate value="2017-05-16"/>
    <asserter>
     <reference value="urn:uuid:5cfdc975-9f0e-48af-b4ac-8114987cb7e0"/>
    </asserter>
   </Condition>
  </resource>
 </entry>
 <!--Condition 3-->
 <entry>
  <fullUrl value="urn:uuid:ad1381ba-8f5e-4755-b2b2-0f0d16fc8464"/>
  <resource>
   <Condition>
    <id value="ad1381ba-8f5e-4755-b2b2-0f0d16fc8464"/>
    <meta>
     <profile value="https://fhir.nhs.uk/STU3/StructureDefinition/CareConnect-ITK-Condition-1"/>
    </meta>
    <identifier>
     <system value="https://tools.ietf.org/html/rfc4122"/>
     <value value="fd672ab7-e398-4872-abc5-70271feddc52"/>
    </identifier>
    <clinicalStatus value="active"/>
    <verificationStatus value="provisional"/>
    <category>
     <coding>
      <system value="https://fhir.hl7.org.uk/STU3/CareConnect-ConditionCategory-1"/>
      <code value="finding"/>
      <display value="Finding"/>
     </coding>
    </category>
    <code>
     <coding>
      <system value="http://snomed.info/sct"/>
      <code value="402815007"/>
      <display value="Squamous cell carcinoma"/>
     </coding>
    </code>
    <bodySite>
     <coding>
      <system value="http://snomed.info/sct"/>
      <code value="66480008"/>
      <display value="Left forearm"/>
     </coding>
    </bodySite>
    <subject>
     <reference value="urn:uuid:862b638b-6f75-4f4b-870f-40d9c8f99e57"/>
    </subject>
    <context>
     <reference value="urn:uuid:c6184a32-b332-440c-9ecc-21c17a6d3528"/>
    </context>
    <assertedDate value="2017-05-16"/>
    <asserter>
     <reference value="urn:uuid:5cfdc975-9f0e-48af-b4ac-8114987cb7e0"/>
    </asserter>
   </Condition>
  </resource>
 </entry>
 <!--observation 1-->
 <entry>
  <fullUrl value="urn:uuid:0b347730-7e70-4cbb-8f07-ae0c367bb48b"/>
  <resource>
   <Observation>
    <id value="0b347730-7e70-4cbb-8f07-ae0c367bb48b"/>
    <meta>
     <!--Identifies the profile being used-->
     <profile value="https://fhir.nhs.uk/STU3/StructureDefinition/CareConnect-ITK-Observation-1"/>
    </meta>
    <identifier>
     <system value="https://tools.ietf.org/html/rfc4122"/>
     <value value="c223aacc-ff6b-4185-9c9b-21f07200d2dd"/>
    </identifier>
    <status value="final"/>
    <code>
     <coding>
      <system value="http://snomed.info/sct"/>
      <code value="1082651000000109"/>
      <display value="Information and communication accessibility needs identified"/>
     </coding>
    </code>
    <subject>
     <reference value="urn:uuid:862b638b-6f75-4f4b-870f-40d9c8f99e57"/>
    </subject>
    <effectivePeriod>
     <start value="2017-05-16"/>
    </effectivePeriod>
    <performer>
     <reference value="urn:uuid:5cfdc975-9f0e-48af-b4ac-8114987cb7e0"/>
    </performer>
    <valueCodeableConcept>
     <coding>
      <system value="http://snomed.info/sct"/>
      <code value="203901000000102"/>
      <display value="Polish language interpreter needed"/>
     </coding>
    </valueCodeableConcept>
   </Observation>
  </resource>
 </entry>
 <!--observation 2 - lesion observation-->
 <entry>
  <fullUrl value="urn:uuid:2483d669-06a6-46c8-b8e8-2d27e298b070"/>
  <resource>
   <Observation>
    <id value="2483d669-06a6-46c8-b8e8-2d27e298b070"/>
    <meta>
     <!--Identifies the profile being used-->
     <profile value="https://fhir.nhs.uk/STU3/StructureDefinition/CareConnect-ITK-Observation-1"/>
    </meta>
    <identifier>
     <system value="https://tools.ietf.org/html/rfc4122"/>
     <value value="0b4af422-351b-428b-8700-83ae7b102178"/>
    </identifier>
    <status value="final"/>
    <code>
     <coding>
      <system value="http://snomed.info/sct"/>
      <code value="364636000"/>
      <display value="Lesion observable"/>
     </coding>
    </code>
    <subject>
     <reference value="urn:uuid:862b638b-6f75-4f4b-870f-40d9c8f99e57"/>
    </subject>
    <effectiveDateTime value="2017-05-16"/>
    <performer>
     <reference value="urn:uuid:5cfdc975-9f0e-48af-b4ac-8114987cb7e0"/>
    </performer>
    <valueCodeableConcept>
     <coding>
      <system value="http://snomed.info/sct"/>
      <code value="56208002"/>
      <display value="Ulcerative lesion"/>
     </coding>
    </valueCodeableConcept>
   </Observation>
  </resource>
 </entry>
 <!--observation 3 occupation-->
 <entry>
  <fullUrl value="urn:uuid:b83d4763-c9d4-40c1-9785-97f30f01ab7d"/>
  <resource>
   <Observation>
    <id value="b83d4763-c9d4-40c1-9785-97f30f01ab7d"/>
    <meta>
     <profile value="https://fhir.nhs.uk/STU3/StructureDefinition/CareConnect-ITK-OccupationalHistory-Observation-1"/>
    </meta>
    <identifier>
     <system value="https://tools.ietf.org/html/rfc4122"/>
     <value value="b563b5ac-f23a-47f4-b4f7-1eba44f5689b"/>
    </identifier>
    <status value="final"/>
    <code>
     <coding>
      <system value="http://snomed.info/sct"/>
      <code value="14679004"/>
      <display value="Occupation"/>
     </coding>
    </code>
    <subject>
     <reference value="urn:uuid:862b638b-6f75-4f4b-870f-40d9c8f99e57"/>
    </subject>
    <effectivePeriod>
     <start value="2014-05-07"/>
    </effectivePeriod>
    <performer>
     <reference value="urn:uuid:5cfdc975-9f0e-48af-b4ac-8114987cb7e0"/>
    </performer>
    <valueCodeableConcept>
     <coding>
      <system value="http://snomed.info/sct"/>
      <code value="236324005"/>
      <display value="Factory worker"/>
     </coding>
    </valueCodeableConcept>
   </Observation>
  </resource>
 </entry>
 <!--observation 4 - regional nodes unaffected-->
 <entry>
  <fullUrl value="urn:uuid:5d33450c-775c-424e-86d9-450db6032c4b"/>
  <resource>
   <Observation>
    <id value="5d33450c-775c-424e-86d9-450db6032c4b"/>
    <meta>
     <!--Identifies the profile being used-->
     <profile value="https://fhir.nhs.uk/STU3/StructureDefinition/CareConnect-ITK-Observation-1"/>
    </meta>
    <identifier>
     <system value="https://tools.ietf.org/html/rfc4122"/>
     <value value="891cb6b7-74a3-4360-a88c-a94a8fa754c1"/>
    </identifier>
    <status value="final"/>
    <code>
     <coding>
      <system value="http://snomed.info/sct"/>
      <code value="399656008"/>
      <display value="Status of tumour metastasis to regional lymph nodes"/>
     </coding>
    </code>
    <subject>
     <reference value="urn:uuid:862b638b-6f75-4f4b-870f-40d9c8f99e57"/>
    </subject>
    <effectiveDateTime value="2017-05-16"/>
    <performer>
     <reference value="urn:uuid:5cfdc975-9f0e-48af-b4ac-8114987cb7e0"/>
    </performer>
    <valueCodeableConcept>
     <coding>
      <system value="http://snomed.info/sct"/>
      <code value="110396000"/>
      <display value="No evidence of malignant neoplasm"/>
     </coding>
    </valueCodeableConcept>
   </Observation>
  </resource>
 </entry>
 <!--Patient-Example-1-->
 <entry>
  <fullUrl value="urn:uuid:862b638b-6f75-4f4b-870f-40d9c8f99e57"/>
  <resource>
   <Patient>
    <id value="862b638b-6f75-4f4b-870f-40d9c8f99e57"/>
    <meta>
     <profile value="https://fhir.hl7.org.uk/STU3/StructureDefinition/CareConnect-Patient-1"/>
    </meta>
    <extension url="https://fhir.hl7.org.uk/STU3/StructureDefinition/Extension-CareConnect-EthnicCategory-1">
     <valueCodeableConcept>
      <coding>
       <system value="https://fhir.hl7.org.uk/STU3/CareConnect-EthnicCategory-1"/>
       <code value="CP"/>
       <display value="Polish"/>
      </coding>
     </valueCodeableConcept>
    </extension>
    <extension url="https://fhir.hl7.org.uk/STU3/StructureDefinition/Extension-CareConnect-ResidentialStatus-1">
     <valueCodeableConcept>
      <coding>
       <system value="https://fhir.hl7.org.uk/STU3/CareConnect-ResidentialStatus-1"/>
       <code value="H"/>
       <display value="UK Resident"/>
      </coding>
     </valueCodeableConcept>
    </extension>
    <extension url="https://fhir.hl7.org.uk/STU3/StructureDefinition/Extension-CareConnect-TreatmentCategory-1">
     <valueCodeableConcept>
      <coding>
       <system value="https://fhir.hl7.org.uk/STU3/CareConnect-TreatmentCategory-1"/>
       <code value="8"/>
       <display value="Not applicable"/>
      </coding>
     </valueCodeableConcept>
    </extension>
    <extension url="https://fhir.hl7.org.uk/STU3/StructureDefinition/Extension-CareConnect-NHSCommunication-1">
     <extension url="language">
      <valueCodeableConcept>
       <coding>
        <system value="https://fhir.hl7.org.uk/STU3/CareConnect-HumanLanguage-1"/>
        <code value="pl"/>
        <display value="Polish"/>
       </coding>
      </valueCodeableConcept>
     </extension>
     <extension url="preferred">
      <valueBoolean value="true"/>
     </extension>
     <extension url="modeOfCommunication">
      <valueCodeableConcept>
       <coding>
        <system value="https://fhir.hl7.org.uk/STU3/CareConnect-LanguageAbilityMode-1"/>
        <code value="ESP"/>
        <display value="Expressed spoken"/>
       </coding>
      </valueCodeableConcept>
     </extension>
     <extension url="modeOfCommunication">
      <valueCodeableConcept>
       <coding>
        <system value="https://fhir.hl7.org.uk/STU3/CareConnect-LanguageAbilityMode-1"/>
        <code value="RWR"/>
        <display value="Received written"/>
       </coding>
      </valueCodeableConcept>
     </extension>
     <extension url="communicationProficiency">
      <valueCodeableConcept>
       <coding>
        <system value="https://fhir.hl7.org.uk/STU3/CareConnect-LanguageAbilityProficiency-1"/>
        <code value="E"/>
        <display value="Excellent"/>
       </coding>
      </valueCodeableConcept>
     </extension>
     <extension url="interpreterRequired">
      <valueBoolean value="false"/>
     </extension>
    </extension>
    <extension url="https://fhir.hl7.org.uk/STU3/StructureDefinition/Extension-CareConnect-NHSCommunication-1">
     <extension url="language">
      <valueCodeableConcept>
       <coding>
        <system value="https://fhir.hl7.org.uk/STU3/CareConnect-HumanLanguage-1"/>
        <code value="en"/>
        <display value="English"/>
       </coding>
      </valueCodeableConcept>
     </extension>
     <extension url="preferred">
      <valueBoolean value="false"/>
     </extension>
     <extension url="modeOfCommunication">
      <valueCodeableConcept>
       <coding>
        <system value="https://fhir.hl7.org.uk/STU3/CareConnect-LanguageAbilityMode-1"/>
        <code value="ESP"/>
        <display value="Expressed spoken"/>
       </coding>
      </valueCodeableConcept>
     </extension>
     <extension url="communicationProficiency">
      <valueCodeableConcept>
       <coding>
        <system value="https://fhir.hl7.org.uk/STU3/CareConnect-LanguageAbilityProficiency-1"/>
        <code value="P"/>
        <display value="Poor"/>
       </coding>
      </valueCodeableConcept>
     </extension>
     <extension url="interpreterRequired">
      <valueBoolean value="true"/>
     </extension>
    </extension>
    <identifier>
     <extension url="https://fhir.hl7.org.uk/STU3/StructureDefinition/Extension-CareConnect-NHSNumberVerificationStatus-1">
      <valueCodeableConcept>
       <coding>
        <system value="https://fhir.hl7.org.uk/STU3/CareConnect-NHSNumberVerificationStatus-1"/>
        <code value="01"/>
        <display value="Number present and verified"/>
       </coding>
      </valueCodeableConcept>
     </extension>
     <system value="https://fhir.nhs.uk/Id/nhs-number"/>
     <value value="126952319"/>
    </identifier>
    <identifier>
     <system value="https://fhir.nhs.uk/Id/local-patient-identifier"/>
     <value value="TL12945"/>
    </identifier>
    <active value="true"/>
    <name>
     <use value="official"/>
     <family value="Beckett"/>
     <given value="Sam"/>
     <prefix value="Mrs"/>
    </name>
     <name>
     <use value="usual"/>
     <family value="Beckett"/>
     <given value="Sam"/>
     <prefix value="Mrs"/>
    </name>
    <telecom>
     <system value="phone"/>
     <value value="077 1234 7982"/>
     <use value="mobile"/>
    </telecom>
    <telecom>
     <system value="email"/>
     <value value="sam@beckett.net"/>
     <use value="home"/>
    </telecom>
    <gender value="female"/>
    <birthDate value="1973-03-02"/>
    <address>
     <use value="home"/>
     <line value="34 Acacia Road"/>
     <postalCode value="BM9 6PL"/>
    </address>
    <contact>
     <relationship>
      <coding>
       <system value="http://hl7.org/fhir/v2/0131"/>
       <code value="N"/>
       <display value="Next-of-Kin"/>
      </coding>
     </relationship>
     <name>
      <use value="official"/>
      <family value="Beckett"/>
      <given value="Samuel"/>
      <prefix value="Mr"/>
     </name>
     <address>
      <use value="home"/>
      <line value="34 Acacia Road"/>
      <postalCode value="BM9 6PL"/>
     </address>
     <gender value="male"/>
    </contact>
   </Patient>
  </resource>
 </entry>
 <!--Practitioner-Example-1-->
 <entry>
  <fullUrl value="urn:uuid:a4dec203-3364-4152-b61b-045be256bc93"/>
  <resource>
   <Practitioner>
    <id value="a4dec203-3364-4152-b61b-045be256bc93"/>
    <meta>
     <profile value="https://fhir.hl7.org.uk/STU3/StructureDefinition/CareConnect-Practitioner-1"/>
    </meta>
    <name>
     <use value="usual"/>
     <family value="Kavanagh"/>
     <given value="Patricia"/>
     <prefix value="Mrs"/>
    </name>
   </Practitioner>
  </resource>
 </entry>
 <!--Practitioner-Example-2-->
 <entry>
  <fullUrl value="urn:uuid:8b2ef03f-6d11-40fe-b199-b3f5a09b5028"/>
  <resource>
   <Practitioner>
    <id value="8b2ef03f-6d11-40fe-b199-b3f5a09b5028"/>
    <meta>
     <profile value="https://fhir.hl7.org.uk/STU3/StructureDefinition/CareConnect-Practitioner-1"/>
    </meta>
    <name>
     <family value="O`Reilly"/>
     <given value="C"/>
     <prefix value="Dr"/>
    </name>
    <telecom>
     <system value="phone"/>
     <value value="01234 956412"/>
     <use value="work"/>
    </telecom>
    <address>
     <line value="Canvas Health Centre"/>
     <line value="27, Acacia Road"/>
     <postalCode value="BM9 6PM"/>
    </address>
   </Practitioner>
  </resource>
 </entry>
 <!--Practitioner-Example-3-->
 <entry>
  <fullUrl value="urn:uuid:5cfdc975-9f0e-48af-b4ac-8114987cb7e0"/>
  <resource>
   <Practitioner>
    <id value="5cfdc975-9f0e-48af-b4ac-8114987cb7e0"/>
    <meta>
     <profile value="https://fhir.hl7.org.uk/STU3/StructureDefinition/CareConnect-Practitioner-1"/>
    </meta>
    <identifier>
     <system value="https://fhir.nhs.uk/Id/local-practitioner-identifier"/>
     <value value="6775580"/>
    </identifier>
    <name>
     <family value="Shauna"/>
     <given value="O'Casey"/>
     <prefix value="Dr"/>
    </name>
    <telecom>
     <system value="phone"/>
     <value value="(01234) 567890"/>
     <use value="work"/>
    </telecom>
    <telecom>
     <system value="email"/>
     <value value="cpc@nhs.uk"/>
     <use value="work"/>
    </telecom>
    <address>
     <line value="Plastic and Reconstructive Surgery Department"/>
     <line value="St. Crispin's Hospital"/>
     <city value="Donaldstown"/>
     <postalCode value="DO1 4XP"/>
    </address>
   </Practitioner>
  </resource>
 </entry>
 <entry>
  <fullUrl value="urn:uuid:c6387b76-d27b-4fcf-9a91-93ca5c16b4fd"/>
  <resource>
   <Practitioner>
    <id value="c6387b76-d27b-4fcf-9a91-93ca5c16b4fd"/>
    <meta>
     <profile value="https://fhir.hl7.org.uk/STU3/StructureDefinition/CareConnect-Practitioner-1"/>
    </meta>
    <name>
     <family value="Jane"/>
     <given value="Joyce"/>
    </name>
    <address>
     <use value="work"/>
     <line value="General Plastic Surgery Clinic"/>
     <line value="St Crispin’s Hospital"/>
     <city value="Donaldstown"/>
     <postalCode value="DO1 4XP"/>
    </address>
   </Practitioner>
  </resource>
 </entry>
 <!--Practitioner roles-->
 <entry>
  <fullUrl value="urn:uuid:2b103117-a783-4a66-a0de-f308cd6b63cf"/>
  <resource>
   <PractitionerRole>
    <id value="2b103117-a783-4a66-a0de-f308cd6b63cf"/>
    <meta>
     <profile value="https://fhir.hl7.org.uk/STU3/StructureDefinition/CareConnect-PractitionerRole-1"/>
    </meta>
    <practitioner>
     <reference value="urn:uuid:8b2ef03f-6d11-40fe-b199-b3f5a09b5028"/>
    </practitioner>
    <organization>
     <reference value="urn:uuid:2db180bc-98fb-4b98-aab1-77a4e6ccd19f"/>
    </organization>
    <code>
     <coding>
      <system value="https://fhir.hl7.org.uk/STU3/CareConnect-SDSJobRoleName-1"/>
      <code value="R0260"/>
      <display value="General Medical Practitioner"/>
     </coding>
    </code>
   </PractitionerRole>
  </resource>
 </entry>
 <entry>
  <fullUrl value="urn:uuid:6057a121-b711-49ef-91c3-1d4c7fa37e8f"/>
  <resource>
   <PractitionerRole>
    <id value="6057a121-b711-49ef-91c3-1d4c7fa37e8f"/>
    <meta>
     <profile value="https://fhir.hl7.org.uk/STU3/StructureDefinition/CareConnect-PractitionerRole-1"/>
    </meta>
    <practitioner>
     <reference value="urn:uuid:5cfdc975-9f0e-48af-b4ac-8114987cb7e0"/>
    </practitioner>
    <organization>
     <reference value="urn:uuid:77cef538-3c15-41c9-8a10-fbbb89fb396a"/>
    </organization>
    <code>
     <coding>
      <system value="https://fhir.nhs.uk/STU3/CodeSystem/CareConnect-SDSJobRoleName-1"/>
      <code value="R0050"/>
      <display value="Consultant"/>
     </coding>
    </code>
    <specialty>
     <coding>
      <system value="http://snomed.info/sct"/>
      <code value="394611003"/>
      <display value="Plastic surgery - speciality"/>
     </coding>
    </specialty>
   </PractitionerRole>
  </resource>
 </entry>
 <entry>
  <fullUrl value="urn:uuid:e6077f3f-4b5c-4757-adec-eb5e26842d1d"/>
  <resource>
   <PractitionerRole>
    <id value="e6077f3f-4b5c-4757-adec-eb5e26842d1d"/>
    <meta>
     <profile value="https://fhir.hl7.org.uk/STU3/StructureDefinition/CareConnect-PractitionerRole-1"/>
    </meta>
    <practitioner>
     <reference value="urn:uuid:a4dec203-3364-4152-b61b-045be256bc93"/>
    </practitioner>
    <organization>
     <reference value="urn:uuid:77cef538-3c15-41c9-8a10-fbbb89fb396a"/>
    </organization>
    <code>
     <coding>
      <system value="https://fhir.nhs.uk/STU3/CodeSystem/CareConnect-SDSJobRoleName-1"/>
      <code value="R0600"/>
      <display value="Specialist Nurse Practitioner"/>
     </coding>
    </code>
    <specialty>
     <coding>
      <system value="http://snomed.info/sct"/>
      <code value="394593009"/>
      <display value="Medical oncology"/>
     </coding>
    </specialty>
   </PractitionerRole>
  </resource>
 </entry>
 <entry>
  <fullUrl value="urn:uuid:c0dc78ca-72b7-4d57-b9bc-118a5cd09f39"/>
  <resource>
   <PractitionerRole>
    <id value="c0dc78ca-72b7-4d57-b9bc-118a5cd09f39"/>
    <meta>
     <profile value="https://fhir.hl7.org.uk/STU3/StructureDefinition/CareConnect-PractitionerRole-1"/>
    </meta>
    <practitioner>
     <reference value="urn:uuid:77cef538-3c15-41c9-8a10-fbbb89fb396a"/>
    </practitioner>
    <code>
     <coding>
      <system value="https://fhir.hl7.org.uk/STU3/CareConnect-SDSJobRoleName-1"/>
      <code value="R1480"/>
      <display value="Healthcare Assistant"/>
     </coding>
    </code>
   </PractitionerRole>
  </resource>
 </entry>
 <!--Organization-Example-1-->
 <entry>
  <fullUrl value="urn:uuid:2db180bc-98fb-4b98-aab1-77a4e6ccd19f"/>
  <resource>
   <Organization>
    <id value="2db180bc-98fb-4b98-aab1-77a4e6ccd19f"/>
    <meta>
     <profile value="https://fhir.hl7.org.uk/STU3/StructureDefinition/CareConnect-Organization-1"/>
    </meta>
    <identifier>
     <system value="https://fhir.nhs.uk/Id/ods-organization-code"/>
     <value value="A111111"/>
    </identifier>
    <type>
     <coding>
      <system value="http://hl7.org/fhir/organization-type"/>
      <code value="prov"/>
      <display value="Healthcare Provider"/>
     </coding>
    </type>
    <name value="Canvas Health Centre"/>
    <telecom>
     <system value="phone"/>
     <value value="01234 956412"/>
     <use value="work"/>
    </telecom>
    <address>
     <use value="work"/>
     <line value="27 Acacia Road"/>
     <postalCode value="BM9 6PM "/>
    </address>
   </Organization>
  </resource>
 </entry>
 <!--Organization-Example-2-->
 <entry>
  <fullUrl value="urn:uuid:77cef538-3c15-41c9-8a10-fbbb89fb396a"/>
  <resource>
   <Organization>
    <id value="77cef538-3c15-41c9-8a10-fbbb89fb396a"/>
    <meta>
     <profile value="https://fhir.hl7.org.uk/STU3/StructureDefinition/CareConnect-Organization-1"/>
    </meta>
    <identifier>
     <system value="https://fhir.nhs.uk/Id/ods-organization-code"/>
     <value value="RX0000"/>
    </identifier>
    <type>
     <coding>
      <system value="http://hl7.org/fhir/organization-type"/>
      <code value="prov"/>
      <display value="Healthcare Provider"/>
     </coding>
    </type>
    <name value="St Crispin's Hospital"/>
    <telecom>
     <system value="phone"/>
     <value value="01234 567890"/>
     <use value="work"/>
    </telecom>
    <address>
     <line value="St Crispin’s Hospital"/>
     <line value="Donaldstown"/>
     <postalCode value="DO1 4XP"/>
    </address>
   </Organization>
  </resource>
 </entry>
 <!--Location-Example-1-->
 <entry>
  <fullUrl value="urn:uuid:9d50f37f-f964-40c3-906f-24db7666a2ab"/>
  <resource>
   <Location>
    <id value="9d50f37f-f964-40c3-906f-24db7666a2ab"/>
    <meta>
     <profile value="https://fhir.hl7.org.uk/STU3/StructureDefinition/CareConnect-Location-1"/>
    </meta>
    <name value="General Plastic Surgery Clinic"/>
    <type>
     <coding>
      <system value="http://hl7.org/fhir/v3/RoleCode"/>
      <code value="OF"/>
      <display value="Outpatient facility"/>
     </coding>
    </type>
    <address>
     <line value="Gaynor Building"/>
     <line value="St Crispin’s Hospital"/>
     <line value="Donaldstown"/>
     <postalCode value="DO1 4XP"/>
    </address>
    <managingOrganization>
     <reference value="urn:uuid:77cef538-3c15-41c9-8a10-fbbb89fb396a"/>
    </managingOrganization>
   </Location>
  </resource>
 </entry>
</Bundle>
