<Flag xmlns="http://hl7.org/fhir">
	<id value="744eec7d-8951-4722-ad74-dc34e86d4e1a"/>
	<meta>
		<profile value="https://fhir.nhs.uk/STU3/StructureDefinition/RARecord-Flag-1"/>
	</meta>
	<contained>
			<Provenance xmlns="http://hl7.org/fhir">
				<id value="2c625745-c551-419d-beaf-96ba5c4a3790"/>
				<meta>
					<profile value="https://fhir.nhs.uk/STU3/StructureDefinition/RARecord-Provenance-1"/>
				</meta>
				<target>
					<reference value="744eec7d-8951-4722-ad74-dc34e86d4e1a"/>
				</target>
				<recorded value="2016-03-01T10:05:33+00:00"/>
				<agent>
					<!-- SDSServer PractitionerRole endpoint uri -->
					<whoUri value="https://spine2.core.nhs.uk/STU3/SDS/PractitionerRole/e5a11456"/>
				</agent>
			</Provenance>
	</contained>
	<extension url="https://fhir.hl7.org.uk/STU3/StructureDefinition/Extension-RARecord-Provenance-1">
		<extension url="created">
			<valueReference>
				<reference value="#2c625745-c551-419d-beaf-96ba5c4a3790"/>
			</valueReference>
		</extension>
	</extension>
	<extension url="https://fhir.hl7.org.uk/STU3/StructureDefinition/Extension-RARecord-AdjustmentCategory-1">
		<valueCodeableConcept>
			<coding>
				<system value="https://fhir.nhs.uk/STU3/CodeSystem/CodeSystem-RARecord-AdjustmentCategories-1"/>
				<code value="comms"/>
				<display value="Communication"/>
			</coding>
		</valueCodeableConcept>
	</extension>
	<status value="active"/>
	<category>
		<coding>
			<system value="https://fhir.nhs.uk/STU3/CodeSystem/CodeSystem-RARecord-FlagCategory-1"/>
			<code value="reasonable adjustments flag"/>
			<display value="Reasonable Adjustments Flag"/>
		</coding>
	</category>
	<code>
		<coding>
			<system value="https://fhir.nhs.uk/STU3/CodeSystem/CodeSystem-RARecord-AccessibleInformationAdjustments-1"/>
			<code value="requiresinformationineasyread"/>
			<display value="Requires information in Easyread"/>
		</coding>
	</code>
	<subject>
		<identifier>
            <!-- could do with a system entry for nhs number -->
            <value value="999999998"/>
        </identifier>
	</subject>
</Flag>
