{
  "resourceType": "Flag",
  "id": "5f96eae1-b5eb-439d-8ba3-153c2b99698c",
  "meta": {
    "versionId": "0dd8da0f-2902-4604-bf87-7268e1ce8166",
    "lastUpdated": "2016-03-01T10:04:33+00:00",
    "profile": [
      "https://fhir.nhs.uk/STU3/StructureDefinition/RARecord-Flag-1"
    ]
  },
  "contained": [
    {
      "resourceType": "Provenance",
      "id": "2c4aa85d-4489-4399-9d3c-35a10a1e6ef1",
      "meta": {
        "profile": [
          "https://fhir.nhs.uk/STU3/StructureDefinition/RARecord-Provenance-1"
        ]
      },
      "target": [
        {
          "reference": "Flag/5f96eae1-b5eb-439d-8ba3-153c2b99698c"
        }
      ],
      "recorded": "2016-03-01T10:05:33+00:00",
      "agent": [
        {
          "role": [
            {
              "coding": [
                {
                  "system": "https://fhir.nhs.uk/STU3/CodeSystem/CareConnect-SDSJobRoleName-1",
                  "code": "R0260",
                  "display": "General Medical Practitioner"
                }
              ]
            }
          ],
          "whoReference": {
            "reference": "https://sds.spineservices.nhs.uk/STU3/Practitioner/2ee4tr6a9",
            "display": "Dr.D"
          },
          "onBehalfOfReference": {
            "reference": "https://directory.spineservices.nhs.uk/STU3/Organization/a3e5i7",
            "display": "Some GP Clinic"
          }
        }
      ]
    }
  ],
  "extension": [
    {
      "url": "https://fhir.nhs.uk/STU3/StructureDefinition/Extension-RARecord-Provenance-1",
      "extension": [
        {
          "url": "created",
          "valueReference": {
            "reference": "#2c4aa85d-4489-4399-9d3c-35a10a1e6ef1"
          }
        }
      ]
    },
    {
      "url": "https://fhir.nhs.uk/STU3/StructureDefinition/Extension-RARecord-AdjustmentCategory-1",
      "valueCodeableConcept": {
        "coding": [
          {
            "system": "https://fhir.nhs.uk/STU3/CodeSystem/CodeSystem-RARecord-AdjustmentCategories-1",
            "code": "comms",
            "display": "Communication"
          }
        ]
      }
    }
  ],
  "status": "active",
  "category": {
    "coding": [
      {
        "system": "https://fhir.nhs.uk/STU3/CodeSystem/CodeSystem-RARecord-FlagCategory-1",
        "code": "reasonable adjustments flag",
        "display": "Reasonable Adjustments Flag"
      }
    ]
  },
  "code": {
    "coding": [
      {
        "system": "https://fhir.nhs.uk/STU3/CodeSystem/CodeSystem-RARecord-AccessibleInformationAdjustments-1",
        "code": "requiresinformationineasyread",
        "display": "Requires information in Easyread"
      }
    ]
  },
  "subject": {
    "reference": "demographics.spineservices.nhs.uk/STU3/Patient/999999998"
  }
}