<!-- CreateListTransactionRequestBody-example.xml -->
<Bundle xmlns="http://hl7.org/fhir">
  <id value="urn:uuid:e96acfdc-daf9-4a2e-9e4e-93dc26d935e9"/> 
  <meta> 
    <lastUpdated value="2018-05-25T00:00:00Z"/> 
  </meta> 
  <type value="transaction"/> 
  <!--    now, each entry is an action to take in the transaction    -->
  <entry> 
    <fullUrl value="urn:uuid:ab31b09a-f175-4802-bab9-fe8efd720680"/> 
    <resource>
        <!-- payload resource in here -->
        <!-- there's an ordering to the resources entered see http://hl7.org/fhir/http.html#transaction -->
        <!-- CareConnect-RARecord-List-1 example -->
        <List xmlns="http://hl7.org/fhir">
            <id value="urn:uuid:ab31b09a-f175-4802-bab9-fe8efd720680"/>
            <meta>
                <profile value="https://fhir.nhs.uk/STU3/StructureDefinition/CareConnect-RARecord-List-1"/>
            </meta>
            <status value="current"/>
            <mode value="changes"/>
            <title value="Reasonable Adjustment List"/>
            <code>
                <coding>
                    <system value="http://snomed.info/sct"/>
                    <code value="1094391000000102"/>
                    <display value="Reasonable adjustments for health and care access"/>
                </coding>
            </code>
            <subject>
                <identifier>
                    <system value="https://fhir.nhs.uk/Id/nhs-number"/>
                    <value value="999999998"/>
                </identifier>
            </subject>
            <date value="2018-05-25T00:00:00Z"/>
            <entry>
                <deleted value="false"/>
                <date value="2018-05-25T00:00:00Z"/>
                <item>
                    <!-- reference to a successfully written Condition available at referred endpoint.  -->
                    <reference value="urn:uuid:334ee6a9-cf05-4908-aebc-6972c49fd719"/>
                </item>
            </entry>
        </List>
    </resource>
  <!--    now, details about the action to take with the resource    -->
    <request> 
    <!--    POST to [base]/Patient - that's a create    -->
      <method value="POST"/> 
    <!--    actually, in a transaction, you don't specify the [base], 
         so [base]/Patient becomes just 'Patient':    -->
      <url value="List"/> 
    </request> 
  </entry>
  <entry> 
    <fullUrl value="urn:uuid:334ee6a9-cf05-4908-aebc-6972c49fd719"/> 
    <resource>
        <!-- payload resource in here -->
        <!-- there's an ordering to the resources entered see http://hl7.org/fhir/http.html#transaction -->
        <Condition xmlns="http://hl7.org/fhir">
            <id value="urn:uuid:334ee6a9-cf05-4908-aebc-6972c49fd719"/>
            <meta>
                <profile value="https://fhir.nhs.uk/STU3/StructureDefinition/CareConnect-RARecord-Condition-1" />
            </meta>
            <contained>
                <Provenance xmlns="http://hl7.org/fhir">
                    <id value="7c342c40-2471-498d-a937-d25dbae0dc7c" />
                    <meta>
                        <profile value="https://fhir.nhs.uk/STU3/StructureDefinition/RARecord-Provenance-1"/>
                    </meta>
                    <target>
                        <reference value="9cbd3dda-c51a-4e68-af70-f0de60cb8ba7"/>
                    </target>
                    <recorded value="2016-03-01T10:05:33+00:00"/>
                    <agent>
                        <!-- ProvenanceServer PractitionerRole endpoint uri -->
                        <whoUri value="https://clinicals.spineservices.nhs.uk/STU3/ProvenanceServer/PractitionerRole/e5a11456"/>
                    </agent>
                </Provenance>
            </contained>
            <extension url="https://fhir.nhs.uk/STU3/StructureDefinition/Extension-RARecord-Provenance-1">
                <extension url="created">
                    <valueReference>
                        <reference value="#7c342c40-2471-498d-a937-d25dbae0dc7c"/>
                    </valueReference>
                </extension>
            </extension>
            <clinicalStatus value="active"/>
            <category>
                <coding>
                    <system value="https://fhir.hl7.org.uk/STU3/CodeSystem/CareConnect-ConditionCategory-1"/>
                    <code value="issue"/>
                    <display value="Issue"/>
                </coding>
            </category>
            <code>
                <coding>
                    <system value="https://fhir.nhs.uk/STU3/CodeSystem/CodeSystem-RARecord-AccessibleInformationAdjustments-1"/>
                    <code value="requiresinformationineasyread"/>
                    <display value="Requires information in Easyread"/>
                </coding>
            </code>
            <subject>
                <identifier>
                    <system value="https://fhir.nhs.uk/Id/nhs-number"/>
                    <value value="999999998"/>
                </identifier>
            </subject>
        </Condition>
    </resource>
  <!--    now, details about the action to take with the resource    -->
    <request> 
    <!--    POST to [base]/Patient - that's a create    -->
      <method value="POST"/> 
    <!--    actually, in a transaction, you don't specify the [base], 
         so [base]/Patient becomes just 'Patient':    -->
      <url value="Condition"/> 
    </request> 
  </entry>
</Bundle>