<!-- ReadListResponseBody-example.xml -->
<Bundle xmlns="http://hl7.org/fhir">
  <id value="b45afdbc-cce1-4623-8942-2ec3baf879e7"/> 
  <meta> 
    <lastUpdated value="2018-05-25T00:00:00Z"/> 
  </meta> 
  <type value="searchset"/>
  <total value="1"/>
  <!--    all search sets include the self link - the statement of the query string searched on. -->
  <link> 
    <relation value="self"/> 
    <url value="https://clinicals.spineservices.nhs.uk/STU3/List?subject=999999998&amp;clinicalStatus=current&amp;code=1094391000000102&amp;_include=List:item.clinicalStatus=active"/> 
  </link>
  <!-- search pagination is also represented as a link set here if required -->
<!--    now, each entry is an action to take in the transaction    -->
  <entry> 
    <fullUrl value="https://clinicals.spineservices.nhs.uk/STU3/List/e00c5a85-d34f-4075-96ac-b787deb484b1"/> 
    <resource>
        <!-- found payload resource or operationOutcome in here -->
        <List>
            <id value="e00c5a85-d34f-4075-96ac-b787deb484b1"/>
            <meta>
                <profile value="https://fhir.nhs.uk/STU3/StructureDefinition/CareConnect-RARecord-List-1"/>
            </meta>
            <status value="current"/>
            <mode value="changes"/>
            <title value="Reasonable Adjustment List"/>
            <code>
                <coding>
                    <system value="http://snomed.info/sct"/>
                    <code value="1094391000000102"/>
                    <display value="Reasonable adjustments for health and care access"/>
                </coding>
            </code>
            <subject>
                <identifier>
                    <reference value="demographics.spineservices.nhs.uk/STU3/Patient/999999998"/>
                </identifier>
            </subject>
            <date value="2018-05-25T00:00:00Z"/>
            <entry>
                <deleted value="false"/>
                <date value="2018-05-25T00:00:00Z"/>
                <item>
                    <!-- reference to a successfully written Condition available at referred endpoint.  -->
                    <reference value="https://clinicals.spineservices.nhs.uk/STU3/Condition/cba81f41-e57d-4b91-b59f-b5efc479faf9"/>
                </item>
            </entry>
        </List>
    </resource>
    <!--    optional details about the search, useful here to categorise matches vs includes or to mark a search failure (the search process MAY include an OperationOutcome in the search set) -->
    <search>
      <mode value="match"/>
    </search>
  </entry>
  <entry> 
    <fullUrl value="https://clinicals.spineservices.nhs.uk/STU3/cba81f41-e57d-4b91-b59f-b5efc479faf9"/> 
    <resource>
        <!-- found payload resource or operationOutcome in here -->
        <Condition>
            <id value="cba81f41-e57d-4b91-b59f-b5efc479faf9"/>
            <meta>
                <profile value="https://fhir.nhs.uk/STU3/StructureDefinition/CareConnect-RARecord-Condition-1" />
            </meta>
            <contained>
            <Provenance>
                <id value="7c342c40-2471-498d-a937-d25dbae0dc7c"/>
                <meta>
                    <profile value="https://fhir.nhs.uk/STU3/StructureDefinition/RARecord-Provenance-1"/>
                </meta>
                <target>
                    <reference value="Condition/cba81f41-e57d-4b91-b59f-b5efc479faf9"/>
                </target>
                <recorded value="2016-03-01T10:05:33+00:00"/>
                <agent>
                    <role>
                        <coding>
                            <system value="https://fhir.nhs.uk/STU3/CodeSystem/CareConnect-SDSJobRoleName-1"/>
                            <code value="R0260"/>
                            <display value="General Medical Practitioner"/>
                        </coding>
                    </role>
                    <whoReference>
                        <reference value="https://sds.spineservices.nhs.uk/STU3/Practitioner/2ee4tr6a9"/>
                        <display value="Dr.D"/>
                    </whoReference>
                    <onBehalfOfReference>
                        <reference value="https://directory.spineservices.nhs.uk/STU3/Organization/a3e5i7"/>
                        <display value="Some GP Clinic"/>
                    </onBehalfOfReference>
                </agent>
            </Provenance>
            </contained>
            <extension url="https://fhir.nhs.uk/STU3/StructureDefinition/Extension-RARecord-Provenance-1">
                <extension url="created">
                    <valueReference>
                        <reference value="#7c342c40-2471-498d-a937-d25dbae0dc7c"/>
                    </valueReference>
                </extension>
            </extension>
            <clinicalStatus value="active"/>
            <category>
                <coding>
                    <system value="https://fhir.hl7.org.uk/STU3/CodeSystem/CareConnect-ConditionCategory-1"/>
                    <code value="issue"/>
                    <display value="Issue"/>
                </coding>
            </category>
            <code>
                <coding>
                    <system value="https://fhir.nhs.uk/STU3/CodeSystem/CodeSystem-RARecord-AccessibleInformationAdjustments-1"/>
                    <code value="requiresinformationineasyread"/>
                    <display value="Requires information in Easyread"/>
                </coding>
            </code>
            <subject>
                <identifier>
                    <reference value="demographics.spineservices.nhs.uk/STU3/Patient/999999998"/>
                </identifier>
            </subject>
        </Condition>
    </resource>
    <search>
      <mode value="include"/>
    </search>
  </entry>
</Bundle>