{
  "resourceType": "Consent",
  "id": "f1dc0ac6-45ff-4d2b-bf91-793971e3e286",
  "fhir_comments": [
    " RARecord-Consent-1 example using a Legal Proxy "
  ],
  "meta": {
    "profile": [
      "https://fhir.nhs.uk/STU3/StructureDefinition/RARecord-Consent-1"
    ]
  },
  "contained": [
    {
      "resourceType": "Provenance",
      "id": "e0531fd1-212d-4a97-a7a9-d17cec9a6af2",
      "meta": {
        "profile": [
          "https://fhir.nhs.uk/STU3/StructureDefinition/RARecord-Provenance-1"
        ]
      },
      "target": [
        {
          "reference": "f1dc0ac6-45ff-4d2b-bf91-793971e3e286"
        }
      ],
      "recorded": "2016-03-01T10:05:33+00:00",
      "agent": [
        {
          "whoUri": "https://clinicals.spineservices.nhs.uk/STU3/ProvenanceServer/PractitionerRole/e5a11456",
          "_whoUri": {
            "fhir_comments": [
              " ProvenanceServer PractitionerRole endpoint uri "
            ]
          }
        }
      ]
    }
  ],
  "extension": [
    {
      "url": "https://fhir.nhs.uk/STU3/StructureDefinition/Extension-RARecord-ProxyRole-1",
      "valueCodeableConcept": {
        "coding": [
          {
            "system": "https://fhir.nhs.uk/STU3/CodeSystem/CodeSystem-RARecord-ProxyRole-1",
            "code": "lpa",
            "display": "Lasting power of attorney personal welfare"
          }
        ]
      }
    },
    {
      "url": "https://fhir.nhs.uk/STU3/StructureDefinition/Extension-RARecord-Provenance-1",
      "extension": [
        {
          "url": "created",
          "valueReference": {
            "reference": "#e0531fd1-212d-4a97-a7a9-d17cec9a6af2"
          }
        }
      ]
    }
  ],
  "status": "active",
  "category": [
    {
      "coding": [
        {
          "system": "https://fhir.nhs.uk/STU3/CodeSystem/CodeSystem-RARecord-FlagCategory-1",
          "code": "reasonable adjustments flag",
          "display": "Reasonable Adjustments Flag"
        }
      ]
    }
  ],
  "patient": {
    "identifier": {
      "system": "https://fhir.nhs.uk/Id/nhs-number",
      "value": "999999998"
    }
  },
  "policy": [
    {
      "fhir_comments": [
        " these are directly lifted from National Data Opt Out. Will need either a general set or specific values for Reasonable Adjustments "
      ],
      "authority": "https://www.gov.uk/",
      "uri": "https://www.gov.uk/government/uploads/system/uploads/attachment_data/file/535024/data-security-review.pdf"
    }
  ],
  "purpose": [
    {
      "system": "https://snomed.info/sct",
      "code": "370856009",
      "display": "Limiting access to confidential patient information"
    }
  ]
}