<!-- RARecord-ReadFlagResponseBody-example-2.xml -->
<Bundle xmlns="http://hl7.org/fhir">
  <id value="1ade4386-04a1-4068-a7de-727f5cccc5c1"/> 
  <meta> 
    <lastUpdated value="2018-06-22T00:00:00Z"/> 
  </meta> 
  <type value="searchset"/>
  <total value="2"/>
  <!--    all search sets include the self link - the statement of the query string searched on. -->
  <link>
    <relation value="self"/>
    <!-- note entity encoding in url -->
    <url value="https://clinicals.spineservices.nhs.uk/STU3/flagserver/Flag?patient=999999998&amp;status=active&amp;category=RAFlag"/>
  </link>
  <!-- search pagination is also represented as a link set here if required -->
  <!--    now, each entry is an action to take in the transaction    -->
  <entry>
    <fullUrl value="https://clinicals.spineservices.nhs.uk/STU3/flagserver/Flag/7e437dcf-2e3f-45ad-9cab-5e4176c11e41"/>
    <resource>
        <!-- found payload resource or operationOutcome in here -->
        <Flag>
            <id value="7e437dcf-2e3f-45ad-9cab-5e4176c11e41"/>
            <meta>
                <profile value="https://fhir.nhs.uk/STU3/StructureDefinition/RARecord-Flag-1"/>
            </meta>
            <contained>
                <Provenance>
                    <id value="b66c320e-63bb-4d5a-848e-f922852a7b5a"/>
                    <meta>
                        <profile value="https://fhir.nhs.uk/STU3/StructureDefinition/RARecord-Provenance-1"/>
                    </meta>
                    <target>
                        <reference value="7e437dcf-2e3f-45ad-9cab-5e4176c11e41"/>
                    </target>
                    <recorded value="2016-03-01T10:05:33+00:00"/>
                    <agent>
                        <role>
                            <coding>
                                <system value="https://fhir.nhs.uk/STU3/CodeSystem/CareConnect-SDSJobRoleName-1"/>
                                <code value="R0260"/>
                                <display value="General Medical Practitioner"/>
                            </coding>
                        </role>
                        <whoReference>
                            <reference value="https://sds.spineservices.nhs.uk/STU3/Practitioner/2ee4tr6a9"/>
                            <display value="Dr.D"/>
                        </whoReference>
                        <onBehalfOfReference>
                            <reference value="https://directory.spineservices.nhs.uk/STU3/Organization/a3e5i7"/>
                            <display value="Some GP Clinic"/>
                        </onBehalfOfReference>
                    </agent>
                </Provenance>
            </contained>
            <extension url="https://fhir.nhs.uk/STU3/StructureDefinition/Extension-RARecord-Provenance-1">
                <extension url="created">
                    <valueReference>
                        <reference value="#b66c320e-63bb-4d5a-848e-f922852a7b5a"/>
                    </valueReference>
                </extension>
            </extension>
            <extension url="https://fhir.nhs.uk/STU3/StructureDefinition/Extension-RARecord-AdjustmentCategory-1">
                <valueCodeableConcept>
                    <coding>
                        <system value="https://fhir.nhs.uk/STU3/CodeSystem/CodeSystem-RARecord-AdjustmentCategories-1"/>
                        <code value="comms"/>
                        <display value="Communication"/>
                    </coding>
                </valueCodeableConcept>
            </extension>
            <status value="active"/>
            <category>
                <coding>
                    <system value="https://fhir.nhs.uk/STU3/CodeSystem/CodeSystem-RARecord-FlagCategory-1"/>
                    <code value="reasonable adjustments flag"/>
                    <display value="Reasonable Adjustments Flag"/>
                </coding>
            </category>
            <code>
                <coding>
                    <system value="https://fhir.nhs.uk/STU3/CodeSystem/CodeSystem-RARecord-CommunicationAdjustments-1"/>
                    <code value="providewrittenremindersandadvice"/>
                    <display value="Provide written reminders and advice"/>
                </coding>
            </code>
            <subject>
                <identifier>
                    <system value="https://fhir.nhs.uk/Id/nhs-number"/>
                    <value value="999999998"/>
                </identifier>
            </subject>
        </Flag>
    </resource>
    <search>
      <mode value="match"/>
    </search>
  </entry>
  <entry>
    <fullUrl value="https://clinicals.spineservices.nhs.uk/STU3/flagserver/Flag/5dd09792-2b3e-4133-8a61-8234080a0077"/>
    <resource>
        <!-- found payload resource or operationOutcome in here -->
        <Flag>
            <id value="5dd09792-2b3e-4133-8a61-8234080a0077"/>
            <meta>
                <profile value="https://fhir.nhs.uk/STU3/StructureDefinition/RARecord-Flag-1"/>
            </meta>
            <contained>
                <Provenance>
                    <id value="cb0a09b0-ddb5-4d42-a3fb-a4be0c7431bb"/>
                    <meta>
                        <profile value="https://fhir.nhs.uk/STU3/StructureDefinition/RARecord-Provenance-1"/>
                    </meta>
                    <target>
                        <reference value="5dd09792-2b3e-4133-8a61-8234080a0077"/>
                    </target>
                    <recorded value="2016-03-01T10:05:33+00:00"/>
                    <agent>
                        <role>
                            <coding>
                                <system value="https://fhir.nhs.uk/STU3/CodeSystem/CareConnect-SDSJobRoleName-1"/>
                                <code value="R0260"/>
                                <display value="General Medical Practitioner"/>
                            </coding>
                        </role>
                        <whoReference>
                            <reference value="https://sds.spineservices.nhs.uk/STU3/Practitioner/2ee4tr6a9"/>
                            <display value="Dr.D"/>
                        </whoReference>
                        <onBehalfOfReference>
                            <reference value="https://directory.spineservices.nhs.uk/STU3/Organization/a3e5i7"/>
                            <display value="Some GP Clinic"/>
                        </onBehalfOfReference>
                    </agent>
                </Provenance>
            </contained>
            <extension url="https://fhir.nhs.uk/STU3/StructureDefinition/Extension-RARecord-Provenance-1">
                <extension url="created">
                    <valueReference>
                        <reference value="#cb0a09b0-ddb5-4d42-a3fb-a4be0c7431bb"/>
                    </valueReference>
                </extension>
            </extension>
            <extension url="https://fhir.nhs.uk/STU3/StructureDefinition/Extension-RARecord-AdjustmentCategory-1">
                <valueCodeableConcept>
                    <coding>
                        <system value="https://fhir.nhs.uk/STU3/CodeSystem/CodeSystem-RARecord-AdjustmentCategories-1"/>
                        <code value="comms"/>
                        <display value="Communication"/>
                    </coding>
                </valueCodeableConcept>
            </extension>
            <status value="active"/>
            <category>
                <coding>
                    <system value="https://fhir.nhs.uk/STU3/CodeSystem/CodeSystem-RARecord-FlagCategory-1"/>
                    <code value="reasonable adjustments flag"/>
                    <display value="Reasonable Adjustments Flag"/>
                </coding>
            </category>
            <code>
                <coding>
                    <system value="https://fhir.nhs.uk/STU3/CodeSystem/CodeSystem-RARecord-CommunicationAdjustments-1"/>
                    <code value="adjustforuseofcommunicationbookaid"/>
                    <display value="Adjust for use of communication book / aid"/>
                </coding>
            </code>
            <subject>
                <identifier>
                    <system value="https://fhir.nhs.uk/Id/nhs-number"/>
                    <value value="999999998"/>
                </identifier>
            </subject>
        </Flag>
    </resource>
    <search>
      <mode value="match"/>
    </search>
  </entry>
</Bundle>