<?xml version="1.0" encoding="UTF-8"?>
<Bundle xmlns="http://hl7.org/fhir">
 <id value="016941b4-6d37-4b26-94c6-fa5ea4b04b16"/>
 <meta>
  <profile value="https://fhir.nhs.uk/STU3/StructureDefinition/ITK-Message-Bundle-1"/>
 </meta>
 <identifier>
  <value value="0bcb5098-ce5a-4a85-a547-2574f90310e4"/>
 </identifier>
 <type value="message"/>
 <entry>
  <fullUrl value="urn:uuid:24771db3-9999-4f4d-83ac-1b60ad6f4a15"/>
  <resource>
   <MessageHeader>
    <id value="24771db3-9999-4f4d-83ac-1b60ad6f4a15"/>
    <meta>
     <profile value="https://fhir.nhs.uk/STU3/StructureDefinition/ITK-MessageHeader-2"/>
    </meta>
    <event>
     <system value="https://fhir.nhs.uk/STU3/CodeSystem/ITK-MessageEvent-2"/>
     <code value="ITK001M"/>
     <display value="ITK Infrastructure Acknowledgement"/>
    </event>
    <sender>
     <reference value="urn:uuid:935105bc-f998-4e86-b15e-8ff3fa9121d5"/>
    </sender>
    <timestamp value="2017-01-23T10:10:16+00:00"/>
    <source>
     <endpoint value="1.2.826.0.1285.0.2.0.107"/>
    </source>
    <response>
     <identifier value="03788f28-d6c9-4893-8f8a-68f8f0ad1f06"/>
     <code value="fatal-error"/>
     <details>
      <reference value="urn:uuid:519b188a-ac9f-49fc-b548-6ab300451049"/>
     </details>
    </response>
    <focus>
     <reference value="urn:uuid:519b188a-ac9f-49fc-b548-6ab300451049"/>
    </focus>
   </MessageHeader>
  </resource>
 </entry>
 <!--Practitioner-->
 <entry>
  <fullUrl value="urn:uuid:935105bc-f998-4e86-b15e-8ff3fa9121d5"/>
  <resource>
   <Practitioner>
    <id value="935105bc-f998-4e86-b15e-8ff3fa9121d5"/>
    <meta>
     <profile value="https://fhir.nhs.uk/STU3/StructureDefinition/CareConnect-ITK-Header-Practitioner-1"/>
    </meta>
    <identifier>
     <system value="https://fhir.nhs.uk/Id/sds-user-id"/>
     <value value="033345750888"/>
    </identifier>
    <name>
     <family value="Kemble"/>
     <given value="Richard"/>
     <prefix value="Dr"/>
    </name>
   </Practitioner>
  </resource>
 </entry>
 <entry>
  <fullUrl value="urn:uuid:519b188a-ac9f-49fc-b548-6ab300451049"/>
  <resource>
   <OperationOutcome>
    <id value="519b188a-ac9f-49fc-b548-6ab300451049"/>
    <meta>
     <profile value="https://fhir.nhs.uk/STU3/StructureDefinition/ITK-Infack-OperationOutcome-1"/>
    </meta>
    <issue>
     <severity value="fatal"/>
     <code value="processing"/>
     <details>
      <coding>
       <system value="https://fhir.nhs.uk/STU3/CodeSystem/ITK-Acknowledgement-1"/>
       <code value="51012"/>
       <display value="Service failure"/>
      </coding>
     </details>
    </issue>
   </OperationOutcome>
  </resource>
 </entry>
</Bundle>
